Unit Serial No : SM245-KSP200281-EU
Integration Time : 100 ms
Time Average: 10
Binning Average: 0
FFT Smoothing: 0%
Project Name : Project Name
Sample Name : 0068
Measurement No : 1
Measurement Time : 12/09/2022   15:26:09

Wavelength(nm)	Wavenumber(1/cm)	Intensity(Counts)
133.0000      	75187.9699    	2691.50000    
134.0000      	74626.8657    	2708.89990    
135.0000      	74074.0741    	2694.60010    
136.0000      	73529.4118    	2701.00000    
137.0000      	72992.7007    	2721.30005    
138.0000      	72463.7681    	2684.10010    
139.0000      	71942.4460    	2697.80005    
140.0000      	71428.5714    	2684.19995    
141.0000      	70921.9858    	2685.00000    
142.0000      	70422.5352    	2684.89990    
143.0000      	69930.0699    	2695.50000    
144.0000      	69444.4444    	2694.39990    
145.0000      	68965.5172    	2716.50000    
146.0000      	68493.1507    	2690.80005    
147.0000      	68027.2109    	2695.00000    
148.0000      	67567.5676    	2719.10010    
149.0000      	67114.0940    	2698.19995    
150.0000      	66666.6667    	2697.69995    
151.0000      	66225.1656    	2687.00000    
152.0000      	65789.4737    	2684.10010    
153.0000      	65359.4771    	2717.00000    
154.0000      	64935.0649    	2711.10010    
155.0000      	64516.1290    	2699.30005    
156.0000      	64102.5641    	2705.10010    
157.0000      	63694.2675    	2701.50000    
158.0000      	63291.1392    	2694.30005    
159.0000      	62893.0818    	2703.19995    
160.0000      	62500.0000    	2709.69995    
161.0000      	62111.8012    	2694.00000    
162.0000      	61728.3951    	2692.39990    
163.0000      	61349.6933    	2690.69995    
164.0000      	60975.6098    	2682.80005    
165.0000      	60606.0606    	2694.50000    
166.0000      	60240.9639    	2680.10010    
167.0000      	59880.2395    	2697.50000    
168.0000      	59523.8095    	2685.19995    
169.0000      	59171.5976    	2688.30005    
170.0000      	58823.5294    	2681.50000    
171.0000      	58479.5322    	2689.39990    
172.0000      	58139.5349    	2701.60010    
173.0000      	57803.4682    	2675.19995    
174.0000      	57471.2644    	2691.00000    
175.0000      	57142.8571    	2666.39990    
176.0000      	56818.1818    	2703.00000    
177.0000      	56497.1751    	2782.39990    
178.0000      	56179.7753    	2685.39990    
179.0000      	55865.9218    	2685.30005    
180.0000      	55555.5556    	2690.89990    
181.0000      	55248.6188    	2696.89990    
182.0000      	54945.0549    	2676.00000    
183.0000      	54644.8087    	2703.69995    
184.0000      	54347.8261    	2693.60010    
185.0000      	54054.0541    	2691.60010    
186.0000      	53763.4409    	2683.60010    
187.0000      	53475.9358    	2702.50000    
188.0000      	53191.4894    	2671.60010    
189.0000      	52910.0529    	2667.60010    
190.0000      	52631.5789    	2690.00000    
191.0000      	52356.0209    	2715.30005    
192.0000      	52083.3333    	2766.60010    
193.0000      	51813.4715    	2682.60010    
194.0000      	51546.3918    	2744.10010    
195.0000      	51282.0513    	2699.10010    
196.0000      	51020.4082    	2679.00000    
197.0000      	50761.4213    	2685.19995    
198.0000      	50505.0505    	2684.80005    
199.0000      	50251.2563    	2689.69995    
200.0000      	50000.0000    	2702.19995    
201.0000      	49751.2438    	2697.30005    
202.0000      	49504.9505    	2687.50000    
203.0000      	49261.0837    	2671.50000    
204.0000      	49019.6078    	2657.00000    
205.0000      	48780.4878    	2694.89990    
206.0000      	48543.6893    	2673.80005    
207.0000      	48309.1787    	2684.19995    
208.0000      	48076.9231    	2685.60010    
209.0000      	47846.8900    	2666.39990    
210.0000      	47619.0476    	2691.89990    
211.0000      	47393.3649    	2706.50000    
212.0000      	47169.8113    	2710.00000    
213.0000      	46948.3568    	2714.10010    
214.0000      	46728.9720    	2769.60010    
215.0000      	46511.6279    	2700.69995    
216.0000      	46296.2963    	2688.50000    
217.0000      	46082.9493    	2702.69995    
218.0000      	45871.5596    	2691.10010    
219.0000      	45662.1005    	2667.50000    
220.0000      	45454.5455    	2689.10010    
221.0000      	45248.8688    	2707.69995    
222.0000      	45045.0450    	2700.00000    
223.0000      	44843.0493    	2713.00000    
224.0000      	44642.8571    	2660.50000    
225.0000      	44444.4444    	2668.30005    
226.0000      	44247.7876    	2685.10010    
227.0000      	44052.8634    	2697.89990    
228.0000      	43859.6491    	2680.80005    
229.0000      	43668.1223    	2708.89990    
230.0000      	43478.2609    	2704.60010    
231.0000      	43290.0433    	2689.19995    
232.0000      	43103.4483    	2712.00000    
233.0000      	42918.4549    	2683.69995    
234.0000      	42735.0427    	2693.50000    
235.0000      	42553.1915    	2690.50000    
236.0000      	42372.8814    	2688.10010    
237.0000      	42194.0928    	2691.50000    
238.0000      	42016.8067    	2737.89990    
239.0000      	41841.0042    	2686.10010    
240.0000      	41666.6667    	2703.30005    
241.0000      	41493.7759    	2694.89990    
242.0000      	41322.3140    	2742.60010    
243.0000      	41152.2634    	2716.50000    
244.0000      	40983.6066    	2694.60010    
245.0000      	40816.3265    	2674.60010    
246.0000      	40650.4065    	2678.19995    
247.0000      	40485.8300    	2685.50000    
248.0000      	40322.5806    	2685.60010    
249.0000      	40160.6426    	2695.00000    
250.0000      	40000.0000    	2672.00000    
251.0000      	39840.6375    	2688.30005    
252.0000      	39682.5397    	2683.80005    
253.0000      	39525.6917    	2741.60010    
254.0000      	39370.0787    	2689.19995    
255.0000      	39215.6863    	2689.39990    
256.0000      	39062.5000    	2688.19995    
257.0000      	38910.5058    	2701.39990    
258.0000      	38759.6899    	2684.80005    
259.0000      	38610.0386    	2678.00000    
260.0000      	38461.5385    	2728.19995    
261.0000      	38314.1762    	2685.69995    
262.0000      	38167.9389    	2676.69995    
263.0000      	38022.8137    	2693.50000    
264.0000      	37878.7879    	2696.00000    
265.0000      	37735.8491    	2686.50000    
266.0000      	37593.9850    	2688.19995    
267.0000      	37453.1835    	2680.60010    
268.0000      	37313.4328    	2693.19995    
269.0000      	37174.7212    	2708.50000    
270.0000      	37037.0370    	2692.30005    
271.0000      	36900.3690    	2688.80005    
272.0000      	36764.7059    	2700.50000    
273.0000      	36630.0366    	2684.80005    
274.0000      	36496.3504    	2697.50000    
275.0000      	36363.6364    	2678.89990    
276.0000      	36231.8841    	2697.00000    
277.0000      	36101.0830    	2695.80005    
278.0000      	35971.2230    	2693.00000    
279.0000      	35842.2939    	2695.60010    
280.0000      	35714.2857    	2704.30005    
281.0000      	35587.1886    	2670.60010    
282.0000      	35460.9929    	2695.89990    
283.0000      	35335.6890    	2698.69995    
284.0000      	35211.2676    	2677.80005    
285.0000      	35087.7193    	2670.69995    
286.0000      	34965.0350    	2674.89990    
287.0000      	34843.2056    	2681.50000    
288.0000      	34722.2222    	2694.89990    
289.0000      	34602.0761    	2686.80005    
290.0000      	34482.7586    	2717.50000    
291.0000      	34364.2612    	2695.89990    
292.0000      	34246.5753    	2710.39990    
293.0000      	34129.6928    	2692.19995    
294.0000      	34013.6054    	2695.89990    
295.0000      	33898.3051    	2684.89990    
296.0000      	33783.7838    	2688.00000    
297.0000      	33670.0337    	2736.50000    
298.0000      	33557.0470    	2696.69995    
299.0000      	33444.8161    	2674.00000    
300.0000      	33333.3333    	2683.00000    
301.0000      	33222.5914    	2725.89990    
302.0000      	33112.5828    	2702.50000    
303.0000      	33003.3003    	2689.89990    
304.0000      	32894.7368    	2689.39990    
305.0000      	32786.8852    	2676.80005    
306.0000      	32679.7386    	2688.39990    
307.0000      	32573.2899    	2696.10010    
308.0000      	32467.5325    	2705.80005    
309.0000      	32362.4595    	2696.10010    
310.0000      	32258.0645    	2688.50000    
311.0000      	32154.3408    	2712.10010    
312.0000      	32051.2821    	2669.69995    
313.0000      	31948.8818    	2699.00000    
314.0000      	31847.1338    	2709.19995    
315.0000      	31746.0317    	2674.60010    
316.0000      	31645.5696    	2669.50000    
317.0000      	31545.7413    	2680.39990    
318.0000      	31446.5409    	2710.89990    
319.0000      	31347.9624    	2674.89990    
320.0000      	31250.0000    	2725.80005    
321.0000      	31152.6480    	2695.39990    
322.0000      	31055.9006    	2699.30005    
323.0000      	30959.7523    	2682.69995    
324.0000      	30864.1975    	2739.69995    
325.0000      	30769.2308    	2682.10010    
326.0000      	30674.8466    	2694.10010    
327.0000      	30581.0398    	2683.69995    
328.0000      	30487.8049    	2701.80005    
329.0000      	30395.1368    	2690.50000    
330.0000      	30303.0303    	2705.80005    
331.0000      	30211.4804    	2673.50000    
332.0000      	30120.4819    	2700.39990    
333.0000      	30030.0300    	2735.19995    
334.0000      	29940.1198    	2681.80005    
335.0000      	29850.7463    	2691.30005    
336.0000      	29761.9048    	2702.10010    
337.0000      	29673.5905    	2679.30005    
338.0000      	29585.7988    	2681.89990    
339.0000      	29498.5251    	2675.80005    
340.0000      	29411.7647    	2710.30005    
341.0000      	29325.5132    	2684.60010    
342.0000      	29239.7661    	2685.39990    
343.0000      	29154.5190    	2704.10010    
344.0000      	29069.7674    	2712.00000    
345.0000      	28985.5072    	2705.19995    
346.0000      	28901.7341    	2673.00000    
347.0000      	28818.4438    	2692.50000    
348.0000      	28735.6322    	2707.80005    
349.0000      	28653.2951    	2721.39990    
350.0000      	28571.4286    	2686.10010    
351.0000      	28490.0285    	2718.00000    
352.0000      	28409.0909    	2831.89990    
353.0000      	28328.6119    	2817.50000    
354.0000      	28248.5876    	2696.30005    
355.0000      	28169.0141    	2705.19995    
356.0000      	28089.8876    	2681.50000    
357.0000      	28011.2045    	2712.30005    
358.0000      	27932.9609    	2711.00000    
359.0000      	27855.1532    	2721.19995    
360.0000      	27777.7778    	3110.39990    
361.0000      	27700.8310    	2763.89990    
362.0000      	27624.3094    	2742.69995    
363.0000      	27548.2094    	2705.30005    
364.0000      	27472.5275    	2808.10010    
365.0000      	27397.2603    	2713.60010    
366.0000      	27322.4044    	2698.19995    
367.0000      	27247.9564    	2679.10010    
368.0000      	27173.9130    	2688.60010    
369.0000      	27100.2710    	2799.60010    
370.0000      	27027.0270    	2765.39990    
371.0000      	26954.1779    	2888.89990    
372.0000      	26881.7204    	2728.60010    
373.0000      	26809.6515    	2697.89990    
374.0000      	26737.9679    	2734.19995    
375.0000      	26666.6667    	2694.10010    
376.0000      	26595.7447    	2719.39990    
377.0000      	26525.1989    	2677.69995    
378.0000      	26455.0265    	2674.69995    
379.0000      	26385.2243    	2704.80005    
380.0000      	26315.7895    	2677.50000    
381.0000      	26246.7192    	2710.50000    
382.0000      	26178.0105    	2789.39990    
383.0000      	26109.6606    	3055.80005    
384.0000      	26041.6667    	2716.19995    
385.0000      	25974.0260    	2691.50000    
386.0000      	25906.7358    	2700.69995    
387.0000      	25839.7933    	2800.50000    
388.0000      	25773.1959    	2827.19995    
389.0000      	25706.9409    	3875.69995    
390.0000      	25641.0256    	4508.20020    
391.0000      	25575.4476    	2764.80005    
392.0000      	25510.2041    	2694.39990    
393.0000      	25445.2926    	2711.89990    
394.0000      	25380.7107    	2702.50000    
395.0000      	25316.4557    	2707.80005    
396.0000      	25252.5253    	2696.00000    
397.0000      	25188.9169    	3207.50000    
398.0000      	25125.6281    	2757.39990    
399.0000      	25062.6566    	2679.00000    
400.0000      	25000.0000    	2725.19995    
401.0000      	24937.6559    	2743.80005    
402.0000      	24875.6219    	2751.19995    
403.0000      	24813.8958    	4777.00000    
404.0000      	24752.4752    	3108.50000    
405.0000      	24691.3580    	2725.60010    
406.0000      	24630.5419    	2787.30005    
407.0000      	24570.0246    	2709.80005    
408.0000      	24509.8039    	2688.39990    
409.0000      	24449.8778    	2716.00000    
410.0000      	24390.2439    	2706.30005    
411.0000      	24330.9002    	2716.50000    
412.0000      	24271.8447    	2780.60010    
413.0000      	24213.0751    	3595.69995    
414.0000      	24154.5894    	2708.89990    
415.0000      	24096.3855    	2928.39990    
416.0000      	24038.4615    	2726.80005    
417.0000      	23980.8153    	2747.30005    
418.0000      	23923.4450    	2765.00000    
419.0000      	23866.3484    	2729.10010    
420.0000      	23809.5238    	2728.00000    
421.0000      	23752.9691    	2722.69995    
422.0000      	23696.6825    	2722.89990    
423.0000      	23640.6619    	2710.50000    
424.0000      	23584.9057    	2745.00000    
425.0000      	23529.4118    	2784.19995    
426.0000      	23474.1784    	2721.19995    
427.0000      	23419.2037    	2778.89990    
428.0000      	23364.4860    	2914.50000    
429.0000      	23310.0233    	2782.80005    
430.0000      	23255.8140    	2776.19995    
431.0000      	23201.8561    	2801.10010    
432.0000      	23148.1481    	2798.00000    
433.0000      	23094.6882    	2813.69995    
434.0000      	23041.4747    	2893.60010    
435.0000      	22988.5057    	2879.30005    
436.0000      	22935.7798    	2960.10010    
437.0000      	22883.2952    	3250.89990    
438.0000      	22831.0502    	2902.50000    
439.0000      	22779.0433    	3076.10010    
440.0000      	22727.2727    	3354.10010    
441.0000      	22675.7370    	2980.30005    
442.0000      	22624.4344    	3031.50000    
443.0000      	22573.3634    	3382.19995    
444.0000      	22522.5225    	3447.69995    
445.0000      	22471.9101    	3162.39990    
446.0000      	22421.5247    	3200.19995    
447.0000      	22371.3647    	3572.50000    
448.0000      	22321.4286    	19840.00000   
449.0000      	22271.7149    	3369.80005    
450.0000      	22222.2222    	3166.69995    
451.0000      	22172.9490    	3091.19995    
452.0000      	22123.8938    	3082.69995    
453.0000      	22075.0552    	3035.39990    
454.0000      	22026.4317    	3297.19995    
455.0000      	21978.0220    	3143.19995    
456.0000      	21929.8246    	2977.10010    
457.0000      	21881.8381    	2979.10010    
458.0000      	21834.0611    	3108.89990    
459.0000      	21786.4924    	3094.50000    
460.0000      	21739.1304    	2939.10010    
461.0000      	21691.9740    	2914.19995    
462.0000      	21645.0216    	2988.50000    
463.0000      	21598.2721    	2912.39990    
464.0000      	21551.7241    	2918.50000    
465.0000      	21505.3763    	2979.60010    
466.0000      	21459.2275    	2907.19995    
467.0000      	21413.2762    	2919.50000    
468.0000      	21367.5214    	2879.60010    
469.0000      	21321.9616    	2951.89990    
470.0000      	21276.5957    	2895.19995    
471.0000      	21231.4225    	3801.39990    
472.0000      	21186.4407    	12729.29980   
473.0000      	21141.6490    	3892.19995    
474.0000      	21097.0464    	2826.89990    
475.0000      	21052.6316    	2851.19995    
476.0000      	21008.4034    	3617.60010    
477.0000      	20964.3606    	2815.00000    
478.0000      	20920.5021    	2803.50000    
479.0000      	20876.8267    	2856.39990    
480.0000      	20833.3333    	3032.80005    
481.0000      	20790.0208    	2856.19995    
482.0000      	20746.8880    	3198.60010    
483.0000      	20703.9337    	3207.60010    
484.0000      	20661.1570    	2955.39990    
485.0000      	20618.5567    	3291.00000    
486.0000      	20576.1317    	2941.10010    
487.0000      	20533.8809    	3683.60010    
488.0000      	20491.8033    	2888.00000    
489.0000      	20449.8978    	3407.89990    
490.0000      	20408.1633    	2974.39990    
491.0000      	20366.5988    	2862.80005    
492.0000      	20325.2033    	2929.39990    
493.0000      	20283.9757    	7798.29980    
494.0000      	20242.9150    	3008.80005    
495.0000      	20202.0202    	2883.39990    
496.0000      	20161.2903    	2868.50000    
497.0000      	20120.7243    	2999.00000    
498.0000      	20080.3213    	2883.60010    
499.0000      	20040.0802    	2850.50000    
500.0000      	20000.0000    	3041.19995    
501.0000      	19960.0798    	3061.10010    
502.0000      	19920.3187    	6247.79980    
503.0000      	19880.7157    	3478.80005    
504.0000      	19841.2698    	4194.70020    
505.0000      	19801.9802    	4271.50000    
506.0000      	19762.8458    	4276.50000    
507.0000      	19723.8659    	2868.19995    
508.0000      	19685.0394    	3186.10010    
509.0000      	19646.3654    	5727.79980    
510.0000      	19607.8431    	2914.30005    
511.0000      	19569.4716    	2878.39990    
512.0000      	19531.2500    	2925.89990    
513.0000      	19493.1774    	3475.89990    
514.0000      	19455.2529    	2857.60010    
515.0000      	19417.4757    	3901.89990    
516.0000      	19379.8450    	4033.30005    
517.0000      	19342.3598    	2978.60010    
518.0000      	19305.0193    	2877.80005    
519.0000      	19267.8227    	3014.10010    
520.0000      	19230.7692    	4479.60010    
521.0000      	19193.8580    	3730.60010    
522.0000      	19157.0881    	3911.89990    
523.0000      	19120.4589    	3400.19995    
524.0000      	19083.9695    	3068.50000    
525.0000      	19047.6190    	2939.69995    
526.0000      	19011.4068    	2868.89990    
527.0000      	18975.3321    	2890.50000    
528.0000      	18939.3939    	2936.60010    
529.0000      	18903.5917    	2902.39990    
530.0000      	18867.9245    	2898.39990    
531.0000      	18832.3917    	3190.39990    
532.0000      	18796.9925    	2929.80005    
533.0000      	18761.7261    	3083.89990    
534.0000      	18726.5918    	8349.00000    
535.0000      	18691.5888    	9597.59961    
536.0000      	18656.7164    	3132.50000    
537.0000      	18621.9739    	3292.39990    
538.0000      	18587.3606    	3176.60010    
539.0000      	18552.8757    	2952.50000    
540.0000      	18518.5185    	2924.39990    
541.0000      	18484.2884    	3438.60010    
542.0000      	18450.1845    	3143.00000    
543.0000      	18416.2063    	3411.89990    
544.0000      	18382.3529    	3478.00000    
545.0000      	18348.6239    	3274.69995    
546.0000      	18315.0183    	3227.19995    
547.0000      	18281.5356    	3152.60010    
548.0000      	18248.1752    	2943.10010    
549.0000      	18214.9362    	2928.50000    
550.0000      	18181.8182    	2991.89990    
551.0000      	18148.8203    	2924.89990    
552.0000      	18115.9420    	2892.10010    
553.0000      	18083.1826    	2893.10010    
554.0000      	18050.5415    	2883.89990    
555.0000      	18018.0180    	2853.89990    
556.0000      	17985.6115    	2829.89990    
557.0000      	17953.3214    	2894.69995    
558.0000      	17921.1470    	2820.69995    
559.0000      	17889.0877    	2848.50000    
560.0000      	17857.1429    	2807.69995    
561.0000      	17825.3119    	2825.00000    
562.0000      	17793.5943    	2821.39990    
563.0000      	17761.9893    	2828.89990    
564.0000      	17730.4965    	2817.30005    
565.0000      	17699.1150    	2816.60010    
566.0000      	17667.8445    	2800.10010    
567.0000      	17636.6843    	2805.19995    
568.0000      	17605.6338    	2834.80005    
569.0000      	17574.6924    	2807.10010    
570.0000      	17543.8596    	2815.30005    
571.0000      	17513.1349    	2813.89990    
572.0000      	17482.5175    	2795.60010    
573.0000      	17452.0070    	2809.19995    
574.0000      	17421.6028    	2876.00000    
575.0000      	17391.3043    	2819.60010    
576.0000      	17361.1111    	2800.10010    
577.0000      	17331.0225    	2809.10010    
578.0000      	17301.0381    	2843.10010    
579.0000      	17271.1572    	2792.10010    
580.0000      	17241.3793    	2864.60010    
581.0000      	17211.7040    	2852.19995    
582.0000      	17182.1306    	2846.50000    
583.0000      	17152.6587    	2862.39990    
584.0000      	17123.2877    	2870.00000    
585.0000      	17094.0171    	2885.60010    
586.0000      	17064.8464    	2868.60010    
587.0000      	17035.7751    	2857.30005    
588.0000      	17006.8027    	2941.80005    
589.0000      	16977.9287    	2863.50000    
590.0000      	16949.1525    	2862.69995    
591.0000      	16920.4738    	2973.60010    
592.0000      	16891.8919    	2853.00000    
593.0000      	16863.4064    	2873.89990    
594.0000      	16835.0168    	2834.30005    
595.0000      	16806.7227    	2839.30005    
596.0000      	16778.5235    	2836.30005    
597.0000      	16750.4188    	2829.60010    
598.0000      	16722.4080    	2848.30005    
599.0000      	16694.4908    	2832.50000    
600.0000      	16666.6667    	2848.89990    
601.0000      	16638.9351    	2824.80005    
602.0000      	16611.2957    	2813.80005    
603.0000      	16583.7479    	2830.30005    
604.0000      	16556.2914    	2814.30005    
605.0000      	16528.9256    	2825.89990    
606.0000      	16501.6502    	2841.10010    
607.0000      	16474.4646    	2859.60010    
608.0000      	16447.3684    	2839.89990    
609.0000      	16420.3612    	2856.39990    
610.0000      	16393.4426    	2886.50000    
611.0000      	16366.6121    	2962.50000    
612.0000      	16339.8693    	3361.39990    
613.0000      	16313.2137    	3159.10010    
614.0000      	16286.6450    	3000.00000    
615.0000      	16260.1626    	3019.89990    
616.0000      	16233.7662    	2945.19995    
617.0000      	16207.4554    	2929.89990    
618.0000      	16181.2298    	2943.30005    
619.0000      	16155.0889    	2945.69995    
620.0000      	16129.0323    	2966.10010    
621.0000      	16103.0596    	2957.80005    
622.0000      	16077.1704    	2983.19995    
623.0000      	16051.3644    	2989.39990    
624.0000      	16025.6410    	2985.89990    
625.0000      	16000.0000    	3031.89990    
626.0000      	15974.4409    	3015.60010    
627.0000      	15948.9633    	3037.50000    
628.0000      	15923.5669    	3129.39990    
629.0000      	15898.2512    	3214.50000    
630.0000      	15873.0159    	3227.10010    
631.0000      	15847.8605    	3526.69995    
632.0000      	15822.7848    	4157.00000    
633.0000      	15797.7883    	43712.39844   
634.0000      	15772.8707    	65535.00000   
635.0000      	15748.0315    	9049.79980    
636.0000      	15723.2704    	3733.89990    
637.0000      	15698.5871    	3326.89990    
638.0000      	15673.9812    	3306.80005    
639.0000      	15649.4523    	3099.00000    
640.0000      	15625.0000    	3024.50000    
641.0000      	15600.6240    	3007.10010    
642.0000      	15576.3240    	2909.30005    
643.0000      	15552.0995    	2895.60010    
644.0000      	15527.9503    	2859.50000    
645.0000      	15503.8760    	2867.10010    
646.0000      	15479.8762    	2854.60010    
647.0000      	15455.9505    	2857.50000    
648.0000      	15432.0988    	2844.80005    
649.0000      	15408.3205    	2853.00000    
650.0000      	15384.6154    	2828.19995    
651.0000      	15360.9831    	2835.00000    
652.0000      	15337.4233    	2841.60010    
653.0000      	15313.9357    	2801.89990    
654.0000      	15290.5199    	2841.50000    
655.0000      	15267.1756    	2788.39990    
656.0000      	15243.9024    	2787.00000    
657.0000      	15220.7002    	2825.50000    
658.0000      	15197.5684    	2788.00000    
659.0000      	15174.5068    	2799.10010    
660.0000      	15151.5152    	2777.00000    
661.0000      	15128.5930    	2820.00000    
662.0000      	15105.7402    	2778.80005    
663.0000      	15082.9563    	2796.60010    
664.0000      	15060.2410    	2774.69995    
665.0000      	15037.5940    	2782.19995    
666.0000      	15015.0150    	2744.50000    
667.0000      	14992.5037    	2769.19995    
668.0000      	14970.0599    	2810.89990    
669.0000      	14947.6831    	2805.89990    
670.0000      	14925.3731    	2769.50000    
671.0000      	14903.1297    	2765.69995    
672.0000      	14880.9524    	2768.89990    
673.0000      	14858.8410    	2740.50000    
674.0000      	14836.7953    	2762.50000    
675.0000      	14814.8148    	2791.69995    
676.0000      	14792.8994    	2751.50000    
677.0000      	14771.0487    	2756.89990    
678.0000      	14749.2625    	2749.10010    
679.0000      	14727.5405    	2741.69995    
680.0000      	14705.8824    	2753.30005    
681.0000      	14684.2878    	2742.39990    
682.0000      	14662.7566    	2737.69995    
683.0000      	14641.2884    	2812.80005    
684.0000      	14619.8830    	2734.50000    
685.0000      	14598.5401    	2769.10010    
686.0000      	14577.2595    	2741.10010    
687.0000      	14556.0408    	2727.19995    
688.0000      	14534.8837    	2741.19995    
689.0000      	14513.7881    	2734.60010    
690.0000      	14492.7536    	2723.19995    
691.0000      	14471.7800    	2743.10010    
692.0000      	14450.8671    	2737.39990    
693.0000      	14430.0144    	2747.60010    
694.0000      	14409.2219    	2910.50000    
695.0000      	14388.4892    	2762.60010    
696.0000      	14367.8161    	2730.39990    
697.0000      	14347.2023    	2735.30005    
698.0000      	14326.6476    	2732.89990    
699.0000      	14306.1516    	2743.30005    
700.0000      	14285.7143    	2710.60010    
701.0000      	14265.3352    	2754.00000    
702.0000      	14245.0142    	2731.19995    
703.0000      	14224.7511    	3169.80005    
704.0000      	14204.5455    	3851.50000    
705.0000      	14184.3972    	2903.10010    
706.0000      	14164.3059    	3466.39990    
707.0000      	14144.2716    	19565.80078   
708.0000      	14124.2938    	8779.29980    
709.0000      	14104.3724    	3855.80005    
710.0000      	14084.5070    	2773.30005    
711.0000      	14064.6976    	2774.80005    
712.0000      	14044.9438    	2781.30005    
713.0000      	14025.2454    	2780.80005    
714.0000      	14005.6022    	2728.80005    
715.0000      	13986.0140    	2755.60010    
716.0000      	13966.4804    	2737.19995    
717.0000      	13947.0014    	2748.80005    
718.0000      	13927.5766    	2998.10010    
719.0000      	13908.2058    	3216.39990    
720.0000      	13888.8889    	2780.50000    
721.0000      	13869.6255    	2737.80005    
722.0000      	13850.4155    	2720.69995    
723.0000      	13831.2586    	2734.10010    
724.0000      	13812.1547    	2757.39990    
725.0000      	13793.1034    	3355.00000    
726.0000      	13774.1047    	4489.10010    
727.0000      	13755.1582    	2861.50000    
728.0000      	13736.2637    	2788.00000    
729.0000      	13717.4211    	5594.29980    
730.0000      	13698.6301    	4372.39990    
731.0000      	13679.8906    	2935.30005    
732.0000      	13661.2022    	2970.10010    
733.0000      	13642.5648    	2777.19995    
734.0000      	13623.9782    	2753.30005    
735.0000      	13605.4422    	2777.19995    
736.0000      	13586.9565    	2761.60010    
737.0000      	13568.5210    	2754.60010    
738.0000      	13550.1355    	2829.19995    
739.0000      	13531.7997    	2780.69995    
740.0000      	13513.5135    	2797.39990    
741.0000      	13495.2767    	2813.30005    
742.0000      	13477.0889    	2773.50000    
743.0000      	13458.9502    	2789.00000    
744.0000      	13440.8602    	2873.10010    
745.0000      	13422.8188    	3304.60010    
746.0000      	13404.8257    	2925.50000    
747.0000      	13386.8809    	2825.19995    
748.0000      	13368.9840    	3065.10010    
749.0000      	13351.1348    	3308.89990    
750.0000      	13333.3333    	4894.39990    
751.0000      	13315.5792    	3187.30005    
752.0000      	13297.8723    	2904.00000    
753.0000      	13280.2125    	2860.39990    
754.0000      	13262.5995    	3954.89990    
755.0000      	13245.0331    	4796.10010    
756.0000      	13227.5132    	3457.69995    
757.0000      	13210.0396    	3040.50000    
758.0000      	13192.6121    	2978.89990    
759.0000      	13175.2306    	2990.89990    
760.0000      	13157.8947    	2985.69995    
761.0000      	13140.6045    	2945.19995    
762.0000      	13123.3596    	2958.60010    
763.0000      	13106.1599    	2963.00000    
764.0000      	13089.0052    	3036.69995    
765.0000      	13071.8954    	3026.69995    
766.0000      	13054.8303    	3060.39990    
767.0000      	13037.8096    	3044.50000    
768.0000      	13020.8333    	3026.19995    
769.0000      	13003.9012    	3059.30005    
770.0000      	12987.0130    	3089.10010    
771.0000      	12970.1686    	3208.50000    
772.0000      	12953.3679    	3218.50000    
773.0000      	12936.6106    	3189.19995    
774.0000      	12919.8966    	3332.50000    
775.0000      	12903.2258    	3281.89990    
776.0000      	12886.5979    	3242.80005    
777.0000      	12870.0129    	3170.39990    
778.0000      	12853.4704    	3251.39990    
779.0000      	12836.9705    	3211.60010    
780.0000      	12820.5128    	3182.10010    
781.0000      	12804.0973    	3206.89990    
782.0000      	12787.7238    	3247.69995    
783.0000      	12771.3921    	3229.10010    
784.0000      	12755.1020    	3264.89990    
785.0000      	12738.8535    	3316.50000    
786.0000      	12722.6463    	3381.50000    
787.0000      	12706.4803    	3373.39990    
788.0000      	12690.3553    	3365.60010    
789.0000      	12674.2712    	3387.10010    
790.0000      	12658.2278    	3443.80005    
791.0000      	12642.2250    	3484.00000    
792.0000      	12626.2626    	3499.60010    
793.0000      	12610.3405    	3463.10010    
794.0000      	12594.4584    	3554.89990    
795.0000      	12578.6164    	3725.69995    
796.0000      	12562.8141    	3543.89990    
797.0000      	12547.0514    	3404.39990    
798.0000      	12531.3283    	3317.80005    
799.0000      	12515.6446    	3353.30005    
800.0000      	12500.0000    	3297.60010    
801.0000      	12484.3945    	3334.19995    
802.0000      	12468.8279    	3390.69995    
803.0000      	12453.3001    	3232.00000    
804.0000      	12437.8109    	3349.30005    
805.0000      	12422.3602    	3270.69995    
806.0000      	12406.9479    	3394.60010    
807.0000      	12391.5737    	3268.10010    
808.0000      	12376.2376    	3407.00000    
809.0000      	12360.9394    	3399.00000    
810.0000      	12345.6790    	3345.60010    
811.0000      	12330.4562    	3517.39990    
812.0000      	12315.2709    	3415.10010    
813.0000      	12300.1230    	3299.80005    
814.0000      	12285.0123    	3652.30005    
815.0000      	12269.9387    	4010.80005    
816.0000      	12254.9020    	3908.89990    
817.0000      	12239.9021    	3694.39990    
818.0000      	12224.9389    	3441.50000    
819.0000      	12210.0122    	3088.89990    
820.0000      	12195.1220    	2891.30005    
821.0000      	12180.2680    	2825.89990    
822.0000      	12165.4501    	2749.19995    
823.0000      	12150.6683    	2744.00000    
824.0000      	12135.9223    	2761.89990    
825.0000      	12121.2121    	2724.89990    
826.0000      	12106.5375    	2737.30005    
827.0000      	12091.8984    	2872.80005    
828.0000      	12077.2947    	2899.10010    
829.0000      	12062.7262    	2764.80005    
830.0000      	12048.1928    	2770.30005    
831.0000      	12033.6943    	3254.60010    
832.0000      	12019.2308    	2931.30005    
833.0000      	12004.8019    	2790.00000    
834.0000      	11990.4077    	2709.89990    
835.0000      	11976.0479    	2717.60010    
836.0000      	11961.7225    	2732.10010    
837.0000      	11947.4313    	2781.19995    
838.0000      	11933.1742    	3503.30005    
839.0000      	11918.9511    	3891.69995    
840.0000      	11904.7619    	2910.19995    
841.0000      	11890.6064    	2738.80005    
842.0000      	11876.4846    	2944.60010    
843.0000      	11862.3962    	3066.60010    
844.0000      	11848.3412    	2887.10010    
845.0000      	11834.3195    	2718.60010    
846.0000      	11820.3310    	2721.80005    
847.0000      	11806.3754    	2757.39990    
848.0000      	11792.4528    	2750.50000    
849.0000      	11778.5630    	2741.50000    
850.0000      	11764.7059    	3345.10010    
851.0000      	11750.8813    	3661.10010    
852.0000      	11737.0892    	2890.19995    
853.0000      	11723.3294    	2701.39990    
854.0000      	11709.6019    	2719.30005    
855.0000      	11695.9064    	2737.69995    
856.0000      	11682.2430    	2729.39990    
857.0000      	11668.6114    	2725.30005    
858.0000      	11655.0117    	2758.30005    
859.0000      	11641.4435    	2845.00000    
860.0000      	11627.9070    	3225.89990    
861.0000      	11614.4019    	2845.69995    
862.0000      	11600.9281    	2761.30005    
863.0000      	11587.4855    	2714.19995    
864.0000      	11574.0741    	2964.69995    
865.0000      	11560.6936    	3135.69995    
866.0000      	11547.3441    	3468.89990    
867.0000      	11534.0254    	3571.80005    
868.0000      	11520.7373    	2876.89990    
869.0000      	11507.4799    	3015.50000    
870.0000      	11494.2529    	2830.89990    
871.0000      	11481.0563    	2755.89990    
872.0000      	11467.8899    	2748.69995    
873.0000      	11454.7537    	2714.39990    
874.0000      	11441.6476    	2685.19995    
875.0000      	11428.5714    	2709.30005    
876.0000      	11415.5251    	2711.60010    
877.0000      	11402.5086    	2726.80005    
878.0000      	11389.5216    	3032.69995    
879.0000      	11376.5643    	3698.39990    
880.0000      	11363.6364    	3485.60010    
881.0000      	11350.7378    	2799.19995    
882.0000      	11337.8685    	2709.69995    
883.0000      	11325.0283    	2712.30005    
884.0000      	11312.2172    	2708.00000    
885.0000      	11299.4350    	2715.00000    
886.0000      	11286.6817    	2910.50000    
887.0000      	11273.9572    	3019.10010    
888.0000      	11261.2613    	2885.80005    
889.0000      	11248.5939    	2746.30005    
890.0000      	11235.9551    	2710.00000    
891.0000      	11223.3446    	2713.30005    
892.0000      	11210.7623    	2722.60010    
893.0000      	11198.2083    	2770.69995    
894.0000      	11185.6823    	2723.30005    
895.0000      	11173.1844    	2715.19995    
896.0000      	11160.7143    	2690.10010    
897.0000      	11148.2720    	2706.80005    
898.0000      	11135.8575    	2690.00000    
899.0000      	11123.4705    	2725.30005    
900.0000      	11111.1111    	2742.30005    
901.0000      	11098.7791    	2711.00000    
902.0000      	11086.4745    	2705.10010    
903.0000      	11074.1971    	2717.80005    
904.0000      	11061.9469    	2714.19995    
905.0000      	11049.7238    	2707.00000    
906.0000      	11037.5276    	2688.60010    
907.0000      	11025.3583    	2712.00000    
908.0000      	11013.2159    	2702.19995    
909.0000      	11001.1001    	2714.39990    
910.0000      	10989.0110    	2692.39990    
911.0000      	10976.9484    	2736.60010    
912.0000      	10964.9123    	2685.30005    
913.0000      	10952.9025    	2702.60010    
914.0000      	10940.9190    	2713.89990    
915.0000      	10928.9617    	2702.69995    
916.0000      	10917.0306    	2795.69995    
917.0000      	10905.1254    	2730.89990    
918.0000      	10893.2462    	2719.30005    
919.0000      	10881.3928    	2710.10010    
920.0000      	10869.5652    	2722.30005    
921.0000      	10857.7633    	2798.00000    
922.0000      	10845.9870    	2710.69995    
923.0000      	10834.2362    	2739.80005    
924.0000      	10822.5108    	2735.89990    
925.0000      	10810.8108    	2712.89990    
926.0000      	10799.1361    	2723.89990    
927.0000      	10787.4865    	2690.60010    
928.0000      	10775.8621    	2732.89990    
929.0000      	10764.2626    	2686.50000    
930.0000      	10752.6882    	2701.39990    
931.0000      	10741.1386    	2753.10010    
932.0000      	10729.6137    	2729.50000    
933.0000      	10718.1136    	2727.50000    
934.0000      	10706.6381    	2715.30005    
935.0000      	10695.1872    	2714.80005    
936.0000      	10683.7607    	2705.00000    
937.0000      	10672.3586    	2692.60010    
938.0000      	10660.9808    	2747.19995    
939.0000      	10649.6273    	2696.60010    
940.0000      	10638.2979    	2717.00000    
941.0000      	10626.9926    	2714.50000    
942.0000      	10615.7113    	2710.60010    
943.0000      	10604.4539    	2714.80005    
944.0000      	10593.2203    	2709.30005    
945.0000      	10582.0106    	2721.80005    
946.0000      	10570.8245    	2711.00000    
947.0000      	10559.6621    	2730.80005    
948.0000      	10548.5232    	2713.60010    
949.0000      	10537.4078    	2728.39990    
950.0000      	10526.3158    	2735.00000    
951.0000      	10515.2471    	2721.19995    
952.0000      	10504.2017    	2726.19995    
953.0000      	10493.1794    	2697.39990    
954.0000      	10482.1803    	2807.39990    
955.0000      	10471.2042    	2722.00000    
956.0000      	10460.2510    	2721.30005    
957.0000      	10449.3208    	2706.50000    
958.0000      	10438.4134    	2705.80005    
959.0000      	10427.5287    	2707.60010    
960.0000      	10416.6667    	2685.39990    
961.0000      	10405.8273    	2684.19995    
962.0000      	10395.0104    	2705.89990    
963.0000      	10384.2160    	2711.00000    
964.0000      	10373.4440    	2697.69995    
965.0000      	10362.6943    	2715.00000    
966.0000      	10351.9669    	2721.80005    
967.0000      	10341.2616    	2797.00000    
968.0000      	10330.5785    	2729.39990    
969.0000      	10319.9174    	2710.39990    
970.0000      	10309.2784    	2689.50000    
971.0000      	10298.6612    	2721.30005    
972.0000      	10288.0658    	2689.39990    
973.0000      	10277.4923    	2714.89990    
974.0000      	10266.9405    	2714.39990    
975.0000      	10256.4103    	2705.19995    
976.0000      	10245.9016    	2724.30005    
977.0000      	10235.4145    	2693.50000    
978.0000      	10224.9489    	2683.80005    
979.0000      	10214.5046    	2695.60010    
980.0000      	10204.0816    	2718.10010    
981.0000      	10193.6799    	2712.50000    
982.0000      	10183.2994    	2725.89990    
983.0000      	10172.9400    	2697.19995    
984.0000      	10162.6016    	2699.39990    
985.0000      	10152.2843    	2701.50000    
986.0000      	10141.9878    	2703.39990    
987.0000      	10131.7123    	2708.39990    
988.0000      	10121.4575    	2705.89990    
989.0000      	10111.2235    	2704.89990    
990.0000      	10101.0101    	2709.10010    
991.0000      	10090.8174    	2704.69995    
992.0000      	10080.6452    	2693.80005    
993.0000      	10070.4935    	2688.19995    
994.0000      	10060.3622    	2721.00000    
995.0000      	10050.2513    	2701.60010    
996.0000      	10040.1606    	2766.00000    
997.0000      	10030.0903    	2696.00000    
998.0000      	10020.0401    	2711.19995    
999.0000      	10010.0100    	2696.10010    
1000.0000     	10000.0000    	2702.39990    
1001.0000     	9990.0100     	2714.30005    
1002.0000     	9980.0399     	2702.19995    
1003.0000     	9970.0897     	2718.39990    
1004.0000     	9960.1594     	2713.00000    
1005.0000     	9950.2488     	2732.80005    
1006.0000     	9940.3579     	2738.89990    
1007.0000     	9930.4866     	2721.69995    
1008.0000     	9920.6349     	2708.80005    
1009.0000     	9910.8028     	2701.30005    
1010.0000     	9900.9901     	2716.80005    
1011.0000     	9891.1968     	2711.00000    
1012.0000     	9881.4229     	2702.69995    
1013.0000     	9871.6683     	2728.80005    
1014.0000     	9861.9329     	2695.19995    
1015.0000     	9852.2167     	2695.00000    
1016.0000     	9842.5197     	2697.19995    
1017.0000     	9832.8417     	2695.10010    
1018.0000     	9823.1827     	2720.19995    
1019.0000     	9813.5427     	2702.19995    
1020.0000     	9803.9216     	2717.60010    
1021.0000     	9794.3193     	2704.89990    
1022.0000     	9784.7358     	2729.89990    
1023.0000     	9775.1711     	2690.19995    
1024.0000     	9765.6250     	2702.39990    
1025.0000     	9756.0976     	2916.10010    
1026.0000     	9746.5887     	2718.10010    
1027.0000     	9737.0983     	2723.10010    
1028.0000     	9727.6265     	2693.19995    
1029.0000     	9718.1730     	2706.00000    
1030.0000     	9708.7379     	2710.50000    
1031.0000     	9699.3210     	2712.80005    
1032.0000     	9689.9225     	2695.30005    
1033.0000     	9680.5421     	2701.60010    
1034.0000     	9671.1799     	2709.10010    
1035.0000     	9661.8357     	2700.89990    
1036.0000     	9652.5097     	2700.30005    
1037.0000     	9643.2015     	2718.50000    
1038.0000     	9633.9114     	2689.89990    
1039.0000     	9624.6391     	2687.60010    
1040.0000     	9615.3846     	2713.69995    
1041.0000     	9606.1479     	2705.89990    
1042.0000     	9596.9290     	2714.10010    
1043.0000     	9587.7277     	2695.19995    
1044.0000     	9578.5441     	2718.89990    
1045.0000     	9569.3780     	2721.10010    
1046.0000     	9560.2294     	2716.89990    
1047.0000     	9551.0984     	2707.00000    
1048.0000     	9541.9847     	2725.39990    
1049.0000     	9532.8885     	2702.69995    
1050.0000     	9523.8095     	2720.10010    
1051.0000     	9514.7479     	2712.10010    
1052.0000     	9505.7034     	2696.00000    
1053.0000     	9496.6762     	2697.00000    
1054.0000     	9487.6660     	2718.19995    
1055.0000     	9478.6730     	2715.60010    
1056.0000     	9469.6970     	2775.39990    
1057.0000     	9460.7379     	2703.30005    
1058.0000     	9451.7958     	2725.00000    
1059.0000     	9442.8706     	2715.30005    
1060.0000     	9433.9623     	2698.89990    
1061.0000     	9425.0707     	2692.89990    
1062.0000     	9416.1959     	2689.30005    
1063.0000     	9407.3377     	2704.10010    
1064.0000     	9398.4962     	2711.39990    
1065.0000     	9389.6714     	2707.39990    
1066.0000     	9380.8630     	2705.39990    
1067.0000     	9372.0712     	2708.30005    
1068.0000     	9363.2959     	2712.10010    
1069.0000     	9354.5370     	2708.50000    
1070.0000     	9345.7944     	2752.60010    
1071.0000     	9337.0682     	2714.00000    
1072.0000     	9328.3582     	2713.80005    
1073.0000     	9319.6645     	2705.00000    
1074.0000     	9310.9870     	2701.60010    
1075.0000     	9302.3256     	2702.30005    
1076.0000     	9293.6803     	2724.89990    
1077.0000     	9285.0511     	2702.50000    
1078.0000     	9276.4378     	2697.10010    
1079.0000     	9267.8406     	2712.39990    
1080.0000     	9259.2593     	2705.19995    
1081.0000     	9250.6938     	2715.89990    
1082.0000     	9242.1442     	2747.10010    
1083.0000     	9233.6103     	2715.89990    
1084.0000     	9225.0923     	2706.50000    
1085.0000     	9216.5899     	2699.50000    
1086.0000     	9208.1031     	2701.89990    
1087.0000     	9199.6320     	2703.89990    
1088.0000     	9191.1765     	2753.50000    
1089.0000     	9182.7365     	2699.69995    
1090.0000     	9174.3119     	2708.39990    
1091.0000     	9165.9028     	2710.19995    
1092.0000     	9157.5092     	2711.10010    
1093.0000     	9149.1308     	2692.39990    
1094.0000     	9140.7678     	2700.50000    
1095.0000     	9132.4201     	2691.69995    
1096.0000     	9124.0876     	2735.19995    
1097.0000     	9115.7703     	2714.19995    
1098.0000     	9107.4681     	2687.89990    
1099.0000     	9099.1811     	2721.69995    
1100.0000     	9090.9091     	2726.19995    
1101.0000     	9082.6521     	2701.80005    
1102.0000     	9074.4102     	2728.30005    
1103.0000     	9066.1831     	2710.80005    
1104.0000     	9057.9710     	2699.10010    
1105.0000     	9049.7738     	2704.39990    
1106.0000     	9041.5913     	2717.60010    
1107.0000     	9033.4237     	2724.80005    
1108.0000     	9025.2708     	2710.00000    
1109.0000     	9017.1326     	2710.80005    
1110.0000     	9009.0090     	2699.50000    
1111.0000     	9000.9001     	2705.30005    
1112.0000     	8992.8058     	2766.39990    
1113.0000     	8984.7260     	2750.50000    
1114.0000     	8976.6607     	2705.89990    
1115.0000     	8968.6099     	2737.19995    
1116.0000     	8960.5735     	2703.80005    
1117.0000     	8952.5515     	2693.39990    
1118.0000     	8944.5438     	2696.39990    
1119.0000     	8936.5505     	2709.80005    
1120.0000     	8928.5714     	2781.39990    
1121.0000     	8920.6066     	2729.80005    
1122.0000     	8912.6560     	2704.69995    
1123.0000     	8904.7195     	2723.50000    
1124.0000     	8896.7972     	2732.80005    
1125.0000     	8888.8889     	2704.80005    
1126.0000     	8880.9947     	2726.89990    
1127.0000     	8873.1145     	2757.69995    
1128.0000     	8865.2482     	2708.00000    
1129.0000     	8857.3959     	2719.69995    
1130.0000     	8849.5575     	2711.80005    
1131.0000     	8841.7330     	2710.19995    
1132.0000     	8833.9223     	2732.19995    
1133.0000     	8826.1253     	2708.50000    
1134.0000     	8818.3422     	2725.89990    
1135.0000     	8810.5727     	2724.30005    
1136.0000     	8802.8169     	2738.19995    
1137.0000     	8795.0748     	2694.69995    
