Unit Serial No : SM245-KSP200281-EU
Integration Time : 100 ms
Time Average: 10
Binning Average: 0
FFT Smoothing: 0%
Project Name : Project Name
Sample Name : 0068
Measurement No : 1
Measurement Time : 12/09/2022   15:33:39

Wavelength(nm)	Wavenumber(1/cm)	Intensity(Counts)
133.0000      	75187.9699    	2603.50000    
134.0000      	74626.8657    	2618.69995    
135.0000      	74074.0741    	2621.69995    
136.0000      	73529.4118    	2609.00000    
137.0000      	72992.7007    	2605.10010    
138.0000      	72463.7681    	2616.80005    
139.0000      	71942.4460    	2610.50000    
140.0000      	71428.5714    	2627.39990    
141.0000      	70921.9858    	2638.50000    
142.0000      	70422.5352    	2637.19995    
143.0000      	69930.0699    	2597.69995    
144.0000      	69444.4444    	2595.30005    
145.0000      	68965.5172    	2625.00000    
146.0000      	68493.1507    	2621.19995    
147.0000      	68027.2109    	2603.00000    
148.0000      	67567.5676    	2616.10010    
149.0000      	67114.0940    	2588.30005    
150.0000      	66666.6667    	2614.19995    
151.0000      	66225.1656    	2639.50000    
152.0000      	65789.4737    	2620.60010    
153.0000      	65359.4771    	2587.19995    
154.0000      	64935.0649    	2616.19995    
155.0000      	64516.1290    	2621.10010    
156.0000      	64102.5641    	2608.39990    
157.0000      	63694.2675    	2601.19995    
158.0000      	63291.1392    	2598.19995    
159.0000      	62893.0818    	2606.10010    
160.0000      	62500.0000    	2630.30005    
161.0000      	62111.8012    	2649.69995    
162.0000      	61728.3951    	2609.50000    
163.0000      	61349.6933    	2591.00000    
164.0000      	60975.6098    	2619.19995    
165.0000      	60606.0606    	2631.00000    
166.0000      	60240.9639    	2606.10010    
167.0000      	59880.2395    	2631.89990    
168.0000      	59523.8095    	2639.60010    
169.0000      	59171.5976    	2612.19995    
170.0000      	58823.5294    	2604.19995    
171.0000      	58479.5322    	2616.89990    
172.0000      	58139.5349    	2603.50000    
173.0000      	57803.4682    	2630.39990    
174.0000      	57471.2644    	2612.10010    
175.0000      	57142.8571    	2593.39990    
176.0000      	56818.1818    	2623.00000    
177.0000      	56497.1751    	2711.10010    
178.0000      	56179.7753    	2588.69995    
179.0000      	55865.9218    	2605.69995    
180.0000      	55555.5556    	2623.30005    
181.0000      	55248.6188    	2597.10010    
182.0000      	54945.0549    	2612.19995    
183.0000      	54644.8087    	2610.69995    
184.0000      	54347.8261    	2615.30005    
185.0000      	54054.0541    	2624.10010    
186.0000      	53763.4409    	2603.00000    
187.0000      	53475.9358    	2601.69995    
188.0000      	53191.4894    	2620.19995    
189.0000      	52910.0529    	2596.39990    
190.0000      	52631.5789    	2606.69995    
191.0000      	52356.0209    	2621.39990    
192.0000      	52083.3333    	2720.19995    
193.0000      	51813.4715    	2626.10010    
194.0000      	51546.3918    	2680.00000    
195.0000      	51282.0513    	2621.10010    
196.0000      	51020.4082    	2599.50000    
197.0000      	50761.4213    	2602.19995    
198.0000      	50505.0505    	2642.69995    
199.0000      	50251.2563    	2612.60010    
200.0000      	50000.0000    	2598.89990    
201.0000      	49751.2438    	2625.39990    
202.0000      	49504.9505    	2615.80005    
203.0000      	49261.0837    	2601.19995    
204.0000      	49019.6078    	2597.80005    
205.0000      	48780.4878    	2613.89990    
206.0000      	48543.6893    	2603.00000    
207.0000      	48309.1787    	2611.69995    
208.0000      	48076.9231    	2613.10010    
209.0000      	47846.8900    	2592.00000    
210.0000      	47619.0476    	2634.00000    
211.0000      	47393.3649    	2616.69995    
212.0000      	47169.8113    	2617.30005    
213.0000      	46948.3568    	2631.10010    
214.0000      	46728.9720    	2687.80005    
215.0000      	46511.6279    	2620.39990    
216.0000      	46296.2963    	2631.30005    
217.0000      	46082.9493    	2627.60010    
218.0000      	45871.5596    	2598.39990    
219.0000      	45662.1005    	2609.30005    
220.0000      	45454.5455    	2629.69995    
221.0000      	45248.8688    	2661.19995    
222.0000      	45045.0450    	2598.80005    
223.0000      	44843.0493    	2610.80005    
224.0000      	44642.8571    	2600.89990    
225.0000      	44444.4444    	2615.30005    
226.0000      	44247.7876    	2617.69995    
227.0000      	44052.8634    	2622.80005    
228.0000      	43859.6491    	2604.69995    
229.0000      	43668.1223    	2628.80005    
230.0000      	43478.2609    	2638.19995    
231.0000      	43290.0433    	2614.50000    
232.0000      	43103.4483    	2622.39990    
233.0000      	42918.4549    	2625.69995    
234.0000      	42735.0427    	2591.89990    
235.0000      	42553.1915    	2603.19995    
236.0000      	42372.8814    	2611.80005    
237.0000      	42194.0928    	2621.50000    
238.0000      	42016.8067    	2668.19995    
239.0000      	41841.0042    	2605.69995    
240.0000      	41666.6667    	2629.60010    
241.0000      	41493.7759    	2636.60010    
242.0000      	41322.3140    	2664.39990    
243.0000      	41152.2634    	2602.69995    
244.0000      	40983.6066    	2638.60010    
245.0000      	40816.3265    	2608.69995    
246.0000      	40650.4065    	2634.30005    
247.0000      	40485.8300    	2618.80005    
248.0000      	40322.5806    	2621.19995    
249.0000      	40160.6426    	2604.60010    
250.0000      	40000.0000    	2608.39990    
251.0000      	39840.6375    	2617.60010    
252.0000      	39682.5397    	2607.00000    
253.0000      	39525.6917    	2674.89990    
254.0000      	39370.0787    	2636.00000    
255.0000      	39215.6863    	2595.30005    
256.0000      	39062.5000    	2593.10010    
257.0000      	38910.5058    	2634.10010    
258.0000      	38759.6899    	2627.10010    
259.0000      	38610.0386    	2615.89990    
260.0000      	38461.5385    	2621.30005    
261.0000      	38314.1762    	2611.30005    
262.0000      	38167.9389    	2618.89990    
263.0000      	38022.8137    	2615.69995    
264.0000      	37878.7879    	2606.80005    
265.0000      	37735.8491    	2625.89990    
266.0000      	37593.9850    	2606.60010    
267.0000      	37453.1835    	2620.50000    
268.0000      	37313.4328    	2604.30005    
269.0000      	37174.7212    	2602.69995    
270.0000      	37037.0370    	2618.50000    
271.0000      	36900.3690    	2624.89990    
272.0000      	36764.7059    	2631.60010    
273.0000      	36630.0366    	2625.30005    
274.0000      	36496.3504    	2629.50000    
275.0000      	36363.6364    	2615.19995    
276.0000      	36231.8841    	2629.89990    
277.0000      	36101.0830    	2639.00000    
278.0000      	35971.2230    	2617.89990    
279.0000      	35842.2939    	2623.69995    
280.0000      	35714.2857    	2637.50000    
281.0000      	35587.1886    	2620.00000    
282.0000      	35460.9929    	2606.19995    
283.0000      	35335.6890    	2586.19995    
284.0000      	35211.2676    	2606.80005    
285.0000      	35087.7193    	2626.39990    
286.0000      	34965.0350    	2618.00000    
287.0000      	34843.2056    	2616.00000    
288.0000      	34722.2222    	2588.39990    
289.0000      	34602.0761    	2624.19995    
290.0000      	34482.7586    	2621.89990    
291.0000      	34364.2612    	2613.30005    
292.0000      	34246.5753    	2620.00000    
293.0000      	34129.6928    	2616.39990    
294.0000      	34013.6054    	2628.19995    
295.0000      	33898.3051    	2630.30005    
296.0000      	33783.7838    	2630.50000    
297.0000      	33670.0337    	2700.60010    
298.0000      	33557.0470    	2586.80005    
299.0000      	33444.8161    	2604.89990    
300.0000      	33333.3333    	2623.19995    
301.0000      	33222.5914    	2642.30005    
302.0000      	33112.5828    	2597.69995    
303.0000      	33003.3003    	2621.89990    
304.0000      	32894.7368    	2608.80005    
305.0000      	32786.8852    	2637.10010    
306.0000      	32679.7386    	2621.19995    
307.0000      	32573.2899    	2593.19995    
308.0000      	32467.5325    	2614.60010    
309.0000      	32362.4595    	2641.00000    
310.0000      	32258.0645    	2603.19995    
311.0000      	32154.3408    	2618.60010    
312.0000      	32051.2821    	2620.60010    
313.0000      	31948.8818    	2582.69995    
314.0000      	31847.1338    	2607.30005    
315.0000      	31746.0317    	2630.60010    
316.0000      	31645.5696    	2604.00000    
317.0000      	31545.7413    	2618.00000    
318.0000      	31446.5409    	2611.39990    
319.0000      	31347.9624    	2603.30005    
320.0000      	31250.0000    	2645.69995    
321.0000      	31152.6480    	2613.69995    
322.0000      	31055.9006    	2606.69995    
323.0000      	30959.7523    	2610.60010    
324.0000      	30864.1975    	2658.39990    
325.0000      	30769.2308    	2609.80005    
326.0000      	30674.8466    	2610.10010    
327.0000      	30581.0398    	2629.80005    
328.0000      	30487.8049    	2625.10010    
329.0000      	30395.1368    	2616.10010    
330.0000      	30303.0303    	2640.80005    
331.0000      	30211.4804    	2605.00000    
332.0000      	30120.4819    	2598.50000    
333.0000      	30030.0300    	2657.39990    
334.0000      	29940.1198    	2619.39990    
335.0000      	29850.7463    	2621.10010    
336.0000      	29761.9048    	2600.80005    
337.0000      	29673.5905    	2602.50000    
338.0000      	29585.7988    	2613.19995    
339.0000      	29498.5251    	2611.69995    
340.0000      	29411.7647    	2624.69995    
341.0000      	29325.5132    	2601.89990    
342.0000      	29239.7661    	2604.30005    
343.0000      	29154.5190    	2638.00000    
344.0000      	29069.7674    	2643.00000    
345.0000      	28985.5072    	2663.19995    
346.0000      	28901.7341    	2616.00000    
347.0000      	28818.4438    	2623.19995    
348.0000      	28735.6322    	2623.50000    
349.0000      	28653.2951    	2657.60010    
350.0000      	28571.4286    	2739.80005    
351.0000      	28490.0285    	2660.60010    
352.0000      	28409.0909    	2614.69995    
353.0000      	28328.6119    	2616.89990    
354.0000      	28248.5876    	2589.39990    
355.0000      	28169.0141    	2618.30005    
356.0000      	28089.8876    	2610.80005    
357.0000      	28011.2045    	2776.80005    
358.0000      	27932.9609    	2777.50000    
359.0000      	27855.1532    	2661.39990    
360.0000      	27777.7778    	2685.80005    
361.0000      	27700.8310    	2632.89990    
362.0000      	27624.3094    	2707.00000    
363.0000      	27548.2094    	2614.00000    
364.0000      	27472.5275    	2627.50000    
365.0000      	27397.2603    	2616.60010    
366.0000      	27322.4044    	2648.50000    
367.0000      	27247.9564    	2657.89990    
368.0000      	27173.9130    	2671.00000    
369.0000      	27100.2710    	2711.39990    
370.0000      	27027.0270    	2635.10010    
371.0000      	26954.1779    	2660.00000    
372.0000      	26881.7204    	2687.30005    
373.0000      	26809.6515    	2617.19995    
374.0000      	26737.9679    	2649.89990    
375.0000      	26666.6667    	2614.69995    
376.0000      	26595.7447    	2634.00000    
377.0000      	26525.1989    	2605.80005    
378.0000      	26455.0265    	2610.30005    
379.0000      	26385.2243    	2625.89990    
380.0000      	26315.7895    	2730.39990    
381.0000      	26246.7192    	2808.10010    
382.0000      	26178.0105    	2641.60010    
383.0000      	26109.6606    	2642.80005    
384.0000      	26041.6667    	2618.10010    
385.0000      	25974.0260    	2684.80005    
386.0000      	25906.7358    	2664.39990    
387.0000      	25839.7933    	3920.00000    
388.0000      	25773.1959    	4082.50000    
389.0000      	25706.9409    	2834.39990    
390.0000      	25641.0256    	2802.50000    
391.0000      	25575.4476    	2670.89990    
392.0000      	25510.2041    	2630.89990    
393.0000      	25445.2926    	2630.10010    
394.0000      	25380.7107    	2627.19995    
395.0000      	25316.4557    	2854.50000    
396.0000      	25252.5253    	2721.69995    
397.0000      	25188.9169    	2628.00000    
398.0000      	25125.6281    	2629.10010    
399.0000      	25062.6566    	2617.39990    
400.0000      	25000.0000    	2700.69995    
401.0000      	24937.6559    	3538.00000    
402.0000      	24875.6219    	3294.30005    
403.0000      	24813.8958    	2769.69995    
404.0000      	24752.4752    	2759.39990    
405.0000      	24691.3580    	2628.39990    
406.0000      	24630.5419    	2628.89990    
407.0000      	24570.0246    	2610.30005    
408.0000      	24509.8039    	2616.19995    
409.0000      	24449.8778    	2616.39990    
410.0000      	24390.2439    	2628.00000    
411.0000      	24330.9002    	3045.39990    
412.0000      	24271.8447    	2768.19995    
413.0000      	24213.0751    	2736.00000    
414.0000      	24154.5894    	2719.19995    
415.0000      	24096.3855    	2635.89990    
416.0000      	24038.4615    	2655.30005    
417.0000      	23980.8153    	2630.50000    
418.0000      	23923.4450    	2619.80005    
419.0000      	23866.3484    	2609.80005    
420.0000      	23809.5238    	2642.69995    
421.0000      	23752.9691    	2629.89990    
422.0000      	23696.6825    	2629.19995    
423.0000      	23640.6619    	2618.30005    
424.0000      	23584.9057    	2644.39990    
425.0000      	23529.4118    	2666.60010    
426.0000      	23474.1784    	2700.10010    
427.0000      	23419.2037    	2664.80005    
428.0000      	23364.4860    	2646.80005    
429.0000      	23310.0233    	2631.69995    
430.0000      	23255.8140    	2616.19995    
431.0000      	23201.8561    	2638.89990    
432.0000      	23148.1481    	2646.89990    
433.0000      	23094.6882    	2667.69995    
434.0000      	23041.4747    	2626.60010    
435.0000      	22988.5057    	2613.10010    
436.0000      	22935.7798    	2603.80005    
437.0000      	22883.2952    	2646.19995    
438.0000      	22831.0502    	3074.89990    
439.0000      	22779.0433    	2751.80005    
440.0000      	22727.2727    	2665.60010    
441.0000      	22675.7370    	2648.19995    
442.0000      	22624.4344    	2918.89990    
443.0000      	22573.3634    	2831.30005    
444.0000      	22522.5225    	2699.10010    
445.0000      	22471.9101    	2720.19995    
446.0000      	22421.5247    	5474.70020    
447.0000      	22371.3647    	7861.70020    
448.0000      	22321.4286    	3875.30005    
449.0000      	22271.7149    	2734.89990    
450.0000      	22222.2222    	2641.19995    
451.0000      	22172.9490    	2640.10010    
452.0000      	22123.8938    	2648.30005    
453.0000      	22075.0552    	2711.39990    
454.0000      	22026.4317    	2711.10010    
455.0000      	21978.0220    	2651.19995    
456.0000      	21929.8246    	2640.89990    
457.0000      	21881.8381    	2746.10010    
458.0000      	21834.0611    	2677.60010    
459.0000      	21786.4924    	2631.39990    
460.0000      	21739.1304    	2647.00000    
461.0000      	21691.9740    	2674.80005    
462.0000      	21645.0216    	2692.89990    
463.0000      	21598.2721    	2669.39990    
464.0000      	21551.7241    	2695.10010    
465.0000      	21505.3763    	2695.89990    
466.0000      	21459.2275    	2678.10010    
467.0000      	21413.2762    	2693.80005    
468.0000      	21367.5214    	2727.69995    
469.0000      	21321.9616    	2679.89990    
470.0000      	21276.5957    	3260.10010    
471.0000      	21231.4225    	7547.39990    
472.0000      	21186.4407    	4266.39990    
473.0000      	21141.6490    	2782.60010    
474.0000      	21097.0464    	2669.10010    
475.0000      	21052.6316    	3012.69995    
476.0000      	21008.4034    	2713.60010    
477.0000      	20964.3606    	2644.50000    
478.0000      	20920.5021    	2671.19995    
479.0000      	20876.8267    	2823.89990    
480.0000      	20833.3333    	2673.60010    
481.0000      	20790.0208    	2814.00000    
482.0000      	20746.8880    	2878.30005    
483.0000      	20703.9337    	2784.30005    
484.0000      	20661.1570    	3014.80005    
485.0000      	20618.5567    	2721.00000    
486.0000      	20576.1317    	2738.50000    
487.0000      	20533.8809    	2751.10010    
488.0000      	20491.8033    	2780.19995    
489.0000      	20449.8978    	2755.50000    
490.0000      	20408.1633    	2648.19995    
491.0000      	20366.5988    	2676.10010    
492.0000      	20325.2033    	4246.60010    
493.0000      	20283.9757    	3340.80005    
494.0000      	20242.9150    	2739.89990    
495.0000      	20202.0202    	2665.69995    
496.0000      	20161.2903    	2835.39990    
497.0000      	20120.7243    	2665.39990    
498.0000      	20080.3213    	2686.19995    
499.0000      	20040.0802    	2658.69995    
500.0000      	20000.0000    	2827.69995    
501.0000      	19960.0798    	3219.69995    
502.0000      	19920.3187    	4503.00000    
503.0000      	19880.7157    	3279.80005    
504.0000      	19841.2698    	5254.89990    
505.0000      	19801.9802    	4912.60010    
506.0000      	19762.8458    	2886.19995    
507.0000      	19723.8659    	2709.50000    
508.0000      	19685.0394    	3570.00000    
509.0000      	19646.3654    	3077.39990    
510.0000      	19607.8431    	2660.89990    
511.0000      	19569.4716    	2680.19995    
512.0000      	19531.2500    	3309.60010    
513.0000      	19493.1774    	2731.10010    
514.0000      	19455.2529    	2724.10010    
515.0000      	19417.4757    	3222.69995    
516.0000      	19379.8450    	2987.60010    
517.0000      	19342.3598    	2667.39990    
518.0000      	19305.0193    	2647.10010    
519.0000      	19267.8227    	3399.00000    
520.0000      	19230.7692    	3117.00000    
521.0000      	19193.8580    	3569.69995    
522.0000      	19157.0881    	2896.30005    
523.0000      	19120.4589    	2899.30005    
524.0000      	19083.9695    	2901.69995    
525.0000      	19047.6190    	2650.39990    
526.0000      	19011.4068    	2610.80005    
527.0000      	18975.3321    	2644.80005    
528.0000      	18939.3939    	2676.39990    
529.0000      	18903.5917    	2651.00000    
530.0000      	18867.9245    	2766.80005    
531.0000      	18832.3917    	2808.10010    
532.0000      	18796.9925    	2673.60010    
533.0000      	18761.7261    	3341.80005    
534.0000      	18726.5918    	3944.50000    
535.0000      	18691.5888    	4829.39990    
536.0000      	18656.7164    	2880.19995    
537.0000      	18621.9739    	2765.30005    
538.0000      	18587.3606    	2941.50000    
539.0000      	18552.8757    	2689.00000    
540.0000      	18518.5185    	2634.89990    
541.0000      	18484.2884    	2882.60010    
542.0000      	18450.1845    	2784.60010    
543.0000      	18416.2063    	2694.39990    
544.0000      	18382.3529    	3385.80005    
545.0000      	18348.6239    	2703.50000    
546.0000      	18315.0183    	2673.89990    
547.0000      	18281.5356    	2631.69995    
548.0000      	18248.1752    	2626.10010    
549.0000      	18214.9362    	2638.89990    
550.0000      	18181.8182    	2668.60010    
551.0000      	18148.8203    	2636.39990    
552.0000      	18115.9420    	2639.69995    
553.0000      	18083.1826    	2628.69995    
554.0000      	18050.5415    	2630.00000    
555.0000      	18018.0180    	2632.10010    
556.0000      	17985.6115    	2633.10010    
557.0000      	17953.3214    	2686.00000    
558.0000      	17921.1470    	2626.60010    
559.0000      	17889.0877    	2650.39990    
560.0000      	17857.1429    	2658.30005    
561.0000      	17825.3119    	2640.39990    
562.0000      	17793.5943    	2633.69995    
563.0000      	17761.9893    	2616.30005    
564.0000      	17730.4965    	2635.19995    
565.0000      	17699.1150    	2630.39990    
566.0000      	17667.8445    	2619.30005    
567.0000      	17636.6843    	2622.10010    
568.0000      	17605.6338    	2611.00000    
569.0000      	17574.6924    	2623.69995    
570.0000      	17543.8596    	2622.69995    
571.0000      	17513.1349    	2608.00000    
572.0000      	17482.5175    	2626.80005    
573.0000      	17452.0070    	2625.19995    
574.0000      	17421.6028    	2711.69995    
575.0000      	17391.3043    	2638.30005    
576.0000      	17361.1111    	2629.80005    
577.0000      	17331.0225    	2639.60010    
578.0000      	17301.0381    	2622.60010    
579.0000      	17271.1572    	2627.80005    
580.0000      	17241.3793    	2624.10010    
581.0000      	17211.7040    	2595.60010    
582.0000      	17182.1306    	2619.50000    
583.0000      	17152.6587    	2595.19995    
584.0000      	17123.2877    	2623.50000    
585.0000      	17094.0171    	2640.10010    
586.0000      	17064.8464    	2646.80005    
587.0000      	17035.7751    	2639.69995    
588.0000      	17006.8027    	2681.39990    
589.0000      	16977.9287    	2630.80005    
590.0000      	16949.1525    	2605.10010    
591.0000      	16920.4738    	2662.00000    
592.0000      	16891.8919    	2618.89990    
593.0000      	16863.4064    	2627.19995    
594.0000      	16835.0168    	2613.89990    
595.0000      	16806.7227    	2617.39990    
596.0000      	16778.5235    	2623.89990    
597.0000      	16750.4188    	2627.80005    
598.0000      	16722.4080    	2654.89990    
599.0000      	16694.4908    	2643.39990    
600.0000      	16666.6667    	2625.00000    
601.0000      	16638.9351    	2645.00000    
602.0000      	16611.2957    	2623.39990    
603.0000      	16583.7479    	2619.10010    
604.0000      	16556.2914    	2623.39990    
605.0000      	16528.9256    	2623.80005    
606.0000      	16501.6502    	2602.39990    
607.0000      	16474.4646    	2636.60010    
608.0000      	16447.3684    	2655.69995    
609.0000      	16420.3612    	2633.60010    
610.0000      	16393.4426    	2665.50000    
611.0000      	16366.6121    	2636.60010    
612.0000      	16339.8693    	2603.60010    
613.0000      	16313.2137    	2644.60010    
614.0000      	16286.6450    	2629.80005    
615.0000      	16260.1626    	2617.30005    
616.0000      	16233.7662    	2623.50000    
617.0000      	16207.4554    	2637.69995    
618.0000      	16181.2298    	2637.69995    
619.0000      	16155.0889    	2629.60010    
620.0000      	16129.0323    	2611.50000    
621.0000      	16103.0596    	2615.50000    
622.0000      	16077.1704    	2636.00000    
623.0000      	16051.3644    	2624.19995    
624.0000      	16025.6410    	2644.89990    
625.0000      	16000.0000    	2625.60010    
626.0000      	15974.4409    	2602.00000    
627.0000      	15948.9633    	2629.60010    
628.0000      	15923.5669    	2636.69995    
629.0000      	15898.2512    	2645.30005    
630.0000      	15873.0159    	2629.50000    
631.0000      	15847.8605    	2680.19995    
632.0000      	15822.7848    	2613.10010    
633.0000      	15797.7883    	2627.69995    
634.0000      	15772.8707    	2631.69995    
635.0000      	15748.0315    	2627.10010    
636.0000      	15723.2704    	2636.10010    
637.0000      	15698.5871    	2635.60010    
638.0000      	15673.9812    	2652.19995    
639.0000      	15649.4523    	2648.00000    
640.0000      	15625.0000    	2622.60010    
641.0000      	15600.6240    	2649.60010    
642.0000      	15576.3240    	2624.00000    
643.0000      	15552.0995    	2629.89990    
644.0000      	15527.9503    	2619.30005    
645.0000      	15503.8760    	2602.10010    
646.0000      	15479.8762    	2618.80005    
647.0000      	15455.9505    	2631.19995    
648.0000      	15432.0988    	2608.89990    
649.0000      	15408.3205    	2613.89990    
650.0000      	15384.6154    	2652.60010    
651.0000      	15360.9831    	2652.00000    
652.0000      	15337.4233    	2638.60010    
653.0000      	15313.9357    	2625.89990    
654.0000      	15290.5199    	2654.69995    
655.0000      	15267.1756    	2646.89990    
656.0000      	15243.9024    	2642.50000    
657.0000      	15220.7002    	2620.10010    
658.0000      	15197.5684    	2605.19995    
659.0000      	15174.5068    	2622.39990    
660.0000      	15151.5152    	2607.39990    
661.0000      	15128.5930    	2622.10010    
662.0000      	15105.7402    	2623.39990    
663.0000      	15082.9563    	2600.30005    
664.0000      	15060.2410    	2629.50000    
665.0000      	15037.5940    	2604.69995    
666.0000      	15015.0150    	2630.00000    
667.0000      	14992.5037    	2609.80005    
668.0000      	14970.0599    	2684.89990    
669.0000      	14947.6831    	2615.60010    
670.0000      	14925.3731    	2628.50000    
671.0000      	14903.1297    	2627.10010    
672.0000      	14880.9524    	2634.50000    
673.0000      	14858.8410    	2658.60010    
674.0000      	14836.7953    	2601.89990    
675.0000      	14814.8148    	2658.89990    
676.0000      	14792.8994    	2611.39990    
677.0000      	14771.0487    	2618.69995    
678.0000      	14749.2625    	2623.50000    
679.0000      	14727.5405    	2630.69995    
680.0000      	14705.8824    	2669.50000    
681.0000      	14684.2878    	2618.69995    
682.0000      	14662.7566    	2619.60010    
683.0000      	14641.2884    	2688.19995    
684.0000      	14619.8830    	2621.50000    
685.0000      	14598.5401    	2636.69995    
686.0000      	14577.2595    	2606.80005    
687.0000      	14556.0408    	2643.19995    
688.0000      	14534.8837    	2629.60010    
689.0000      	14513.7881    	2617.60010    
690.0000      	14492.7536    	2631.69995    
691.0000      	14471.7800    	2637.39990    
692.0000      	14450.8671    	2642.19995    
693.0000      	14430.0144    	2627.39990    
694.0000      	14409.2219    	2682.39990    
695.0000      	14388.4892    	2695.19995    
696.0000      	14367.8161    	2644.69995    
697.0000      	14347.2023    	2641.30005    
698.0000      	14326.6476    	2621.69995    
699.0000      	14306.1516    	2632.10010    
700.0000      	14285.7143    	2647.80005    
701.0000      	14265.3352    	2623.10010    
702.0000      	14245.0142    	2639.60010    
703.0000      	14224.7511    	2673.19995    
704.0000      	14204.5455    	2924.39990    
705.0000      	14184.3972    	3196.89990    
706.0000      	14164.3059    	2798.39990    
707.0000      	14144.2716    	4119.70020    
708.0000      	14124.2938    	12364.00000   
709.0000      	14104.3724    	8439.40039    
710.0000      	14084.5070    	2964.00000    
711.0000      	14064.6976    	2776.19995    
712.0000      	14044.9438    	2734.19995    
713.0000      	14025.2454    	2708.30005    
714.0000      	14005.6022    	2709.19995    
715.0000      	13986.0140    	2670.30005    
716.0000      	13966.4804    	2648.10010    
717.0000      	13947.0014    	2637.50000    
718.0000      	13927.5766    	2696.50000    
719.0000      	13908.2058    	2791.69995    
720.0000      	13888.8889    	2801.39990    
721.0000      	13869.6255    	2640.50000    
722.0000      	13850.4155    	2632.19995    
723.0000      	13831.2586    	2636.10010    
724.0000      	13812.1547    	2632.10010    
725.0000      	13793.1034    	2790.80005    
726.0000      	13774.1047    	2998.50000    
727.0000      	13755.1582    	3364.39990    
728.0000      	13736.2637    	2705.10010    
729.0000      	13717.4211    	2886.89990    
730.0000      	13698.6301    	3816.19995    
731.0000      	13679.8906    	3161.39990    
732.0000      	13661.2022    	2737.60010    
733.0000      	13642.5648    	2710.00000    
734.0000      	13623.9782    	2653.39990    
735.0000      	13605.4422    	2627.80005    
736.0000      	13586.9565    	2654.19995    
737.0000      	13568.5210    	2640.80005    
738.0000      	13550.1355    	2643.30005    
739.0000      	13531.7997    	2630.89990    
740.0000      	13513.5135    	2624.60010    
741.0000      	13495.2767    	2637.89990    
742.0000      	13477.0889    	2630.80005    
743.0000      	13458.9502    	2644.89990    
744.0000      	13440.8602    	2626.89990    
745.0000      	13422.8188    	2666.50000    
746.0000      	13404.8257    	2935.80005    
747.0000      	13386.8809    	2663.80005    
748.0000      	13368.9840    	2670.10010    
749.0000      	13351.1348    	2828.10010    
750.0000      	13333.3333    	2841.30005    
751.0000      	13315.5792    	3588.00000    
752.0000      	13297.8723    	2760.30005    
753.0000      	13280.2125    	2639.89990    
754.0000      	13262.5995    	2759.60010    
755.0000      	13245.0331    	3070.60010    
756.0000      	13227.5132    	3395.10010    
757.0000      	13210.0396    	2854.50000    
758.0000      	13192.6121    	2649.19995    
759.0000      	13175.2306    	2634.80005    
760.0000      	13157.8947    	2635.80005    
761.0000      	13140.6045    	2638.60010    
762.0000      	13123.3596    	2623.69995    
763.0000      	13106.1599    	2623.50000    
764.0000      	13089.0052    	2646.00000    
765.0000      	13071.8954    	2608.19995    
766.0000      	13054.8303    	2641.30005    
767.0000      	13037.8096    	2629.80005    
768.0000      	13020.8333    	2610.10010    
769.0000      	13003.9012    	2620.80005    
770.0000      	12987.0130    	2625.39990    
771.0000      	12970.1686    	2642.30005    
772.0000      	12953.3679    	2615.69995    
773.0000      	12936.6106    	2646.80005    
774.0000      	12919.8966    	2620.80005    
775.0000      	12903.2258    	2632.50000    
776.0000      	12886.5979    	2626.10010    
777.0000      	12870.0129    	2628.00000    
778.0000      	12853.4704    	2632.19995    
779.0000      	12836.9705    	2628.50000    
780.0000      	12820.5128    	2621.00000    
781.0000      	12804.0973    	2648.50000    
782.0000      	12787.7238    	2631.30005    
783.0000      	12771.3921    	2607.80005    
784.0000      	12755.1020    	2626.30005    
785.0000      	12738.8535    	2620.69995    
786.0000      	12722.6463    	2647.39990    
787.0000      	12706.4803    	2632.39990    
788.0000      	12690.3553    	2631.69995    
789.0000      	12674.2712    	2631.89990    
790.0000      	12658.2278    	2592.69995    
791.0000      	12642.2250    	2634.19995    
792.0000      	12626.2626    	2631.10010    
793.0000      	12610.3405    	2625.50000    
794.0000      	12594.4584    	2721.00000    
795.0000      	12578.6164    	2644.50000    
796.0000      	12562.8141    	2735.50000    
797.0000      	12547.0514    	2663.80005    
798.0000      	12531.3283    	2644.30005    
799.0000      	12515.6446    	2623.00000    
800.0000      	12500.0000    	2632.10010    
801.0000      	12484.3945    	2628.39990    
802.0000      	12468.8279    	2629.00000    
803.0000      	12453.3001    	2621.50000    
804.0000      	12437.8109    	2610.30005    
805.0000      	12422.3602    	2614.80005    
806.0000      	12406.9479    	2604.69995    
807.0000      	12391.5737    	2628.89990    
808.0000      	12376.2376    	2616.89990    
809.0000      	12360.9394    	2635.69995    
810.0000      	12345.6790    	2651.60010    
811.0000      	12330.4562    	2659.60010    
812.0000      	12315.2709    	2608.60010    
813.0000      	12300.1230    	2647.69995    
814.0000      	12285.0123    	2693.60010    
815.0000      	12269.9387    	2693.10010    
816.0000      	12254.9020    	2705.30005    
817.0000      	12239.9021    	2635.80005    
818.0000      	12224.9389    	2630.50000    
819.0000      	12210.0122    	2639.39990    
820.0000      	12195.1220    	2628.50000    
821.0000      	12180.2680    	2644.80005    
822.0000      	12165.4501    	2622.69995    
823.0000      	12150.6683    	2640.00000    
824.0000      	12135.9223    	2635.89990    
825.0000      	12121.2121    	2624.89990    
826.0000      	12106.5375    	2645.00000    
827.0000      	12091.8984    	2651.10010    
828.0000      	12077.2947    	2654.69995    
829.0000      	12062.7262    	2680.00000    
830.0000      	12048.1928    	2658.30005    
831.0000      	12033.6943    	2667.50000    
832.0000      	12019.2308    	2787.39990    
833.0000      	12004.8019    	2760.19995    
834.0000      	11990.4077    	2626.30005    
835.0000      	11976.0479    	2630.10010    
836.0000      	11961.7225    	2641.19995    
837.0000      	11947.4313    	2669.50000    
838.0000      	11933.1742    	2778.60010    
839.0000      	11918.9511    	2843.80005    
840.0000      	11904.7619    	2850.10010    
841.0000      	11890.6064    	2658.80005    
842.0000      	11876.4846    	2687.69995    
843.0000      	11862.3962    	2717.89990    
844.0000      	11848.3412    	2734.89990    
845.0000      	11834.3195    	2660.60010    
846.0000      	11820.3310    	2631.69995    
847.0000      	11806.3754    	2642.60010    
848.0000      	11792.4528    	2636.19995    
849.0000      	11778.5630    	2648.19995    
850.0000      	11764.7059    	2760.50000    
851.0000      	11750.8813    	2853.80005    
852.0000      	11737.0892    	2754.10010    
853.0000      	11723.3294    	2640.50000    
854.0000      	11709.6019    	2634.80005    
855.0000      	11695.9064    	2633.69995    
856.0000      	11682.2430    	2643.60010    
857.0000      	11668.6114    	2630.89990    
858.0000      	11655.0117    	2631.00000    
859.0000      	11641.4435    	2688.00000    
860.0000      	11627.9070    	2687.30005    
861.0000      	11614.4019    	2714.69995    
862.0000      	11600.9281    	2650.00000    
863.0000      	11587.4855    	2628.00000    
864.0000      	11574.0741    	2722.50000    
865.0000      	11560.6936    	2703.89990    
866.0000      	11547.3441    	2798.50000    
867.0000      	11534.0254    	2828.60010    
868.0000      	11520.7373    	2755.80005    
869.0000      	11507.4799    	2644.80005    
870.0000      	11494.2529    	2695.19995    
871.0000      	11481.0563    	2671.89990    
872.0000      	11467.8899    	2646.69995    
873.0000      	11454.7537    	2644.69995    
874.0000      	11441.6476    	2633.69995    
875.0000      	11428.5714    	2630.19995    
876.0000      	11415.5251    	2632.80005    
877.0000      	11402.5086    	2618.80005    
878.0000      	11389.5216    	2735.39990    
879.0000      	11376.5643    	2772.19995    
880.0000      	11363.6364    	2825.10010    
881.0000      	11350.7378    	2666.89990    
882.0000      	11337.8685    	2637.69995    
883.0000      	11325.0283    	2634.00000    
884.0000      	11312.2172    	2611.10010    
885.0000      	11299.4350    	2599.19995    
886.0000      	11286.6817    	2634.30005    
887.0000      	11273.9572    	2707.69995    
888.0000      	11261.2613    	2689.00000    
889.0000      	11248.5939    	2627.30005    
890.0000      	11235.9551    	2636.19995    
891.0000      	11223.3446    	2640.00000    
892.0000      	11210.7623    	2658.80005    
893.0000      	11198.2083    	2658.69995    
894.0000      	11185.6823    	2654.19995    
895.0000      	11173.1844    	2640.19995    
896.0000      	11160.7143    	2642.69995    
897.0000      	11148.2720    	2650.50000    
898.0000      	11135.8575    	2621.19995    
899.0000      	11123.4705    	2625.69995    
900.0000      	11111.1111    	2666.00000    
901.0000      	11098.7791    	2625.80005    
902.0000      	11086.4745    	2628.60010    
903.0000      	11074.1971    	2641.89990    
904.0000      	11061.9469    	2630.10010    
905.0000      	11049.7238    	2613.39990    
906.0000      	11037.5276    	2622.50000    
907.0000      	11025.3583    	2630.00000    
908.0000      	11013.2159    	2624.10010    
909.0000      	11001.1001    	2614.69995    
910.0000      	10989.0110    	2641.00000    
911.0000      	10976.9484    	2642.69995    
912.0000      	10964.9123    	2622.39990    
913.0000      	10952.9025    	2653.60010    
914.0000      	10940.9190    	2638.50000    
915.0000      	10928.9617    	2626.19995    
916.0000      	10917.0306    	2648.19995    
917.0000      	10905.1254    	2647.30005    
918.0000      	10893.2462    	2631.39990    
919.0000      	10881.3928    	2612.00000    
920.0000      	10869.5652    	2624.69995    
921.0000      	10857.7633    	2689.80005    
922.0000      	10845.9870    	2655.60010    
923.0000      	10834.2362    	2648.10010    
924.0000      	10822.5108    	2614.60010    
925.0000      	10810.8108    	2628.50000    
926.0000      	10799.1361    	2634.00000    
927.0000      	10787.4865    	2632.60010    
928.0000      	10775.8621    	2621.39990    
929.0000      	10764.2626    	2648.30005    
930.0000      	10752.6882    	2646.00000    
931.0000      	10741.1386    	2626.19995    
932.0000      	10729.6137    	2661.80005    
933.0000      	10718.1136    	2655.50000    
934.0000      	10706.6381    	2634.30005    
935.0000      	10695.1872    	2636.00000    
936.0000      	10683.7607    	2630.10010    
937.0000      	10672.3586    	2633.19995    
938.0000      	10660.9808    	2669.10010    
939.0000      	10649.6273    	2629.60010    
940.0000      	10638.2979    	2643.30005    
941.0000      	10626.9926    	2615.19995    
942.0000      	10615.7113    	2613.00000    
943.0000      	10604.4539    	2627.39990    
944.0000      	10593.2203    	2636.80005    
945.0000      	10582.0106    	2642.19995    
946.0000      	10570.8245    	2645.89990    
947.0000      	10559.6621    	2637.50000    
948.0000      	10548.5232    	2623.39990    
949.0000      	10537.4078    	2634.89990    
950.0000      	10526.3158    	2601.50000    
951.0000      	10515.2471    	2617.30005    
952.0000      	10504.2017    	2629.50000    
953.0000      	10493.1794    	2610.80005    
954.0000      	10482.1803    	2692.10010    
955.0000      	10471.2042    	2626.50000    
956.0000      	10460.2510    	2635.00000    
957.0000      	10449.3208    	2637.19995    
958.0000      	10438.4134    	2633.60010    
959.0000      	10427.5287    	2621.69995    
960.0000      	10416.6667    	2634.19995    
961.0000      	10405.8273    	2639.50000    
962.0000      	10395.0104    	2643.00000    
963.0000      	10384.2160    	2649.80005    
964.0000      	10373.4440    	2599.00000    
965.0000      	10362.6943    	2637.69995    
966.0000      	10351.9669    	2611.30005    
967.0000      	10341.2616    	2642.80005    
968.0000      	10330.5785    	2640.89990    
969.0000      	10319.9174    	2631.39990    
970.0000      	10309.2784    	2607.60010    
971.0000      	10298.6612    	2628.69995    
972.0000      	10288.0658    	2625.00000    
973.0000      	10277.4923    	2638.19995    
974.0000      	10266.9405    	2625.80005    
975.0000      	10256.4103    	2627.50000    
976.0000      	10245.9016    	2635.50000    
977.0000      	10235.4145    	2635.60010    
978.0000      	10224.9489    	2629.69995    
979.0000      	10214.5046    	2637.10010    
980.0000      	10204.0816    	2637.50000    
981.0000      	10193.6799    	2648.69995    
982.0000      	10183.2994    	2637.39990    
983.0000      	10172.9400    	2619.39990    
984.0000      	10162.6016    	2637.39990    
985.0000      	10152.2843    	2650.10010    
986.0000      	10141.9878    	2648.10010    
987.0000      	10131.7123    	2614.30005    
988.0000      	10121.4575    	2645.30005    
989.0000      	10111.2235    	2635.50000    
990.0000      	10101.0101    	2657.10010    
991.0000      	10090.8174    	2628.00000    
992.0000      	10080.6452    	2632.60010    
993.0000      	10070.4935    	2646.50000    
994.0000      	10060.3622    	2654.00000    
995.0000      	10050.2513    	2633.30005    
996.0000      	10040.1606    	2693.39990    
997.0000      	10030.0903    	2611.30005    
998.0000      	10020.0401    	2643.80005    
999.0000      	10010.0100    	2627.30005    
1000.0000     	10000.0000    	2637.30005    
1001.0000     	9990.0100     	2641.50000    
1002.0000     	9980.0399     	2628.69995    
1003.0000     	9970.0897     	2626.50000    
1004.0000     	9960.1594     	2630.80005    
1005.0000     	9950.2488     	2605.00000    
1006.0000     	9940.3579     	2632.39990    
1007.0000     	9930.4866     	2636.10010    
1008.0000     	9920.6349     	2621.19995    
1009.0000     	9910.8028     	2665.39990    
1010.0000     	9900.9901     	2622.00000    
1011.0000     	9891.1968     	2609.80005    
1012.0000     	9881.4229     	2635.80005    
1013.0000     	9871.6683     	2669.80005    
1014.0000     	9861.9329     	2610.89990    
1015.0000     	9852.2167     	2615.00000    
1016.0000     	9842.5197     	2660.00000    
1017.0000     	9832.8417     	2630.80005    
1018.0000     	9823.1827     	2634.89990    
1019.0000     	9813.5427     	2632.30005    
1020.0000     	9803.9216     	2640.89990    
1021.0000     	9794.3193     	2643.39990    
1022.0000     	9784.7358     	2637.00000    
1023.0000     	9775.1711     	2608.89990    
1024.0000     	9765.6250     	2654.39990    
1025.0000     	9756.0976     	2870.00000    
1026.0000     	9746.5887     	2627.10010    
1027.0000     	9737.0983     	2619.69995    
1028.0000     	9727.6265     	2624.30005    
1029.0000     	9718.1730     	2656.50000    
1030.0000     	9708.7379     	2638.19995    
1031.0000     	9699.3210     	2630.50000    
1032.0000     	9689.9225     	2647.80005    
1033.0000     	9680.5421     	2635.50000    
1034.0000     	9671.1799     	2635.39990    
1035.0000     	9661.8357     	2636.19995    
1036.0000     	9652.5097     	2638.30005    
1037.0000     	9643.2015     	2649.80005    
1038.0000     	9633.9114     	2638.50000    
1039.0000     	9624.6391     	2625.50000    
1040.0000     	9615.3846     	2627.80005    
1041.0000     	9606.1479     	2645.00000    
1042.0000     	9596.9290     	2652.19995    
1043.0000     	9587.7277     	2643.19995    
1044.0000     	9578.5441     	2621.39990    
1045.0000     	9569.3780     	2633.39990    
1046.0000     	9560.2294     	2634.39990    
1047.0000     	9551.0984     	2647.89990    
1048.0000     	9541.9847     	2621.19995    
1049.0000     	9532.8885     	2603.00000    
1050.0000     	9523.8095     	2642.80005    
1051.0000     	9514.7479     	2621.00000    
1052.0000     	9505.7034     	2611.69995    
1053.0000     	9496.6762     	2627.00000    
1054.0000     	9487.6660     	2650.19995    
1055.0000     	9478.6730     	2645.69995    
1056.0000     	9469.6970     	2665.00000    
1057.0000     	9460.7379     	2650.60010    
1058.0000     	9451.7958     	2639.60010    
1059.0000     	9442.8706     	2645.39990    
1060.0000     	9433.9623     	2625.19995    
1061.0000     	9425.0707     	2626.30005    
1062.0000     	9416.1959     	2641.69995    
1063.0000     	9407.3377     	2628.19995    
1064.0000     	9398.4962     	2632.19995    
1065.0000     	9389.6714     	2621.69995    
1066.0000     	9380.8630     	2632.39990    
1067.0000     	9372.0712     	2639.50000    
1068.0000     	9363.2959     	2650.60010    
1069.0000     	9354.5370     	2635.69995    
1070.0000     	9345.7944     	2676.19995    
1071.0000     	9337.0682     	2647.10010    
1072.0000     	9328.3582     	2636.39990    
1073.0000     	9319.6645     	2619.69995    
1074.0000     	9310.9870     	2637.39990    
1075.0000     	9302.3256     	2634.19995    
1076.0000     	9293.6803     	2638.80005    
1077.0000     	9285.0511     	2635.50000    
1078.0000     	9276.4378     	2615.19995    
1079.0000     	9267.8406     	2628.60010    
1080.0000     	9259.2593     	2631.30005    
1081.0000     	9250.6938     	2669.50000    
1082.0000     	9242.1442     	2660.30005    
1083.0000     	9233.6103     	2624.19995    
1084.0000     	9225.0923     	2620.10010    
1085.0000     	9216.5899     	2633.19995    
1086.0000     	9208.1031     	2641.39990    
1087.0000     	9199.6320     	2640.19995    
1088.0000     	9191.1765     	2669.19995    
1089.0000     	9182.7365     	2622.00000    
1090.0000     	9174.3119     	2652.89990    
1091.0000     	9165.9028     	2624.50000    
1092.0000     	9157.5092     	2625.60010    
1093.0000     	9149.1308     	2639.60010    
1094.0000     	9140.7678     	2629.39990    
1095.0000     	9132.4201     	2628.50000    
1096.0000     	9124.0876     	2655.50000    
1097.0000     	9115.7703     	2627.30005    
1098.0000     	9107.4681     	2632.89990    
1099.0000     	9099.1811     	2646.60010    
1100.0000     	9090.9091     	2631.10010    
1101.0000     	9082.6521     	2613.60010    
1102.0000     	9074.4102     	2643.69995    
1103.0000     	9066.1831     	2637.39990    
1104.0000     	9057.9710     	2634.39990    
1105.0000     	9049.7738     	2642.00000    
1106.0000     	9041.5913     	2631.30005    
1107.0000     	9033.4237     	2632.10010    
1108.0000     	9025.2708     	2626.89990    
1109.0000     	9017.1326     	2643.19995    
1110.0000     	9009.0090     	2663.50000    
1111.0000     	9000.9001     	2616.19995    
1112.0000     	8992.8058     	2669.60010    
1113.0000     	8984.7260     	2667.19995    
1114.0000     	8976.6607     	2624.50000    
1115.0000     	8968.6099     	2648.80005    
1116.0000     	8960.5735     	2626.39990    
1117.0000     	8952.5515     	2627.19995    
1118.0000     	8944.5438     	2653.50000    
1119.0000     	8936.5505     	2638.39990    
1120.0000     	8928.5714     	2714.30005    
1121.0000     	8920.6066     	2663.19995    
1122.0000     	8912.6560     	2619.60010    
1123.0000     	8904.7195     	2624.30005    
1124.0000     	8896.7972     	2621.89990    
1125.0000     	8888.8889     	2629.10010    
1126.0000     	8880.9947     	2640.50000    
1127.0000     	8873.1145     	2662.00000    
1128.0000     	8865.2482     	2638.80005    
1129.0000     	8857.3959     	2637.89990    
1130.0000     	8849.5575     	2635.89990    
1131.0000     	8841.7330     	2648.89990    
1132.0000     	8833.9223     	2646.69995    
1133.0000     	8826.1253     	2641.69995    
1134.0000     	8818.3422     	2644.39990    
1135.0000     	8810.5727     	2641.00000    
1136.0000     	8802.8169     	2632.50000    
1137.0000     	8795.0748     	2628.69995    
