Pixel	Wavelength(nm)	Wavenumber(1/cm)	Intensity(Counts)
1    	132.6255      	75400.2706    	3052    
2    	133.0654      	75151.0337    	3193    
3    	133.5053      	74903.4048    	3151    
4    	133.9452      	74657.3770    	3159    
5    	134.3853      	74412.9263    	3192    
6    	134.8253      	74170.0377    	3192    
7    	135.2655      	73928.7044    	3209    
8    	135.7056      	73688.9034    	3264    
9    	136.1459      	73450.6202    	3156    
10   	136.5862      	73213.8484    	3152    
11   	137.0265      	72978.5658    	3155    
12   	137.4669      	72744.7582    	3204    
13   	137.9074      	72512.4119    	3144    
14   	138.3479      	72281.5212    	3120    
15   	138.7885      	72052.0724    	3152    
16   	139.2292      	71824.0364    	3144    
17   	139.6698      	71597.4157    	3102    
18   	140.1106      	71372.1896    	3115    
19   	140.5514      	71148.3528    	3209    
20   	140.9922      	70925.8850    	3174    
21   	141.4332      	70704.7735    	3140    
22   	141.8741      	70485.0060    	3173    
23   	142.3152      	70266.5779    	3186    
24   	142.7562      	70049.4769    	3178    
25   	143.1974      	69833.6762    	3200    
26   	143.6386      	69619.1788    	3210    
27   	144.0798      	69405.9656    	3213    
28   	144.5211      	69194.0325    	3204    
29   	144.9625      	68983.3607    	3190    
30   	145.4039      	68773.9389    	3165    
31   	145.8454      	68565.7562    	3271    
32   	146.2869      	68358.8086    	3180    
33   	146.7285      	68153.0782    	3174    
34   	147.1702      	67948.5612    	3179    
35   	147.6118      	67745.2400    	3232    
36   	148.0536      	67543.1041    	3223    
37   	148.4954      	67342.1501    	3204    
38   	148.9373      	67142.3608    	3096    
39   	149.3792      	66943.7261    	3228    
40   	149.8212      	66746.2361    	3117    
41   	150.2632      	66549.8875    	3142    
42   	150.7053      	66354.6707    	3101    
43   	151.1474      	66160.5623    	3194    
44   	151.5896      	65967.5664    	3208    
45   	152.0319      	65775.6734    	3177    
46   	152.4742      	65584.8607    	3128    
47   	152.9166      	65395.1323    	3111    
48   	153.3590      	65206.4791    	3256    
49   	153.8015      	65018.8788    	3280    
50   	154.2440      	64832.3358    	3218    
51   	154.6866      	64646.8409    	3208    
52   	155.1293      	64462.3727    	3168    
53   	155.5719      	64278.9417    	3140    
54   	156.0147      	64096.5203    	3182    
55   	156.4575      	63915.1127    	3228    
56   	156.9004      	63734.7043    	3254    
57   	157.3433      	63555.2868    	3278    
58   	157.7863      	63376.8582    	3243    
59   	158.2293      	63199.4043    	3211    
60   	158.6724      	63022.9231    	3168    
61   	159.1156      	62847.4008    	3198    
62   	159.5588      	62672.8294    	3105    
63   	160.0020      	62499.2073    	3098    
64   	160.4453      	62326.5207    	3204    
65   	160.8887      	62154.7623    	3201    
66   	161.3321      	61983.9303    	3206    
67   	161.7756      	61814.0115    	3212    
68   	162.2192      	61644.9985    	3217    
69   	162.6628      	61476.8900    	3113    
70   	163.1064      	61309.6729    	3120    
71   	163.5501      	61143.3459    	3180    
72   	163.9939      	60977.8905    	3197    
73   	164.4377      	60813.3169    	3213    
74   	164.8815      	60649.6011    	3188    
75   	165.3255      	60486.7478    	3287    
76   	165.7695      	60324.7444    	3133    
77   	166.2135      	60163.5900    	3237    
78   	166.6576      	60003.2723    	3146    
79   	167.1017      	59843.7849    	3204    
80   	167.5459      	59685.1267    	3198    
81   	167.9902      	59527.2860    	3208    
82   	168.4345      	59370.2618    	3188    
83   	168.8789      	59214.0424    	3158    
84   	169.3233      	59058.6216    	3047    
85   	169.7678      	58903.9935    	3230    
86   	170.2123      	58750.1571    	3165    
87   	170.6569      	58597.1064    	3186    
88   	171.1015      	58444.8251    	3205    
89   	171.5462      	58293.3176    	3131    
90   	171.9910      	58142.5781    	3176    
91   	172.4358      	57992.5957    	3128    
92   	172.8807      	57843.3647    	3228    
93   	173.3256      	57694.8793    	3175    
94   	173.7706      	57547.1392    	3173    
95   	174.2156      	57400.1337    	3202    
96   	174.6607      	57253.8624    	3192    
97   	175.1059      	57108.3147    	3120    
98   	175.5510      	56963.4903    	3101    
99   	175.9963      	56819.3739    	3112    
100  	176.4416      	56675.9752    	3128    
101  	176.8870      	56533.2740    	3197    
102  	177.3324      	56391.2750    	3122    
103  	177.7779      	56249.9683    	3128    
104  	178.2234      	56109.3537    	3219    
105  	178.6690      	55969.4211    	3162    
106  	179.1146      	55830.1705    	3269    
107  	179.5603      	55691.5874    	3150    
108  	180.0061      	55553.6812    	3207    
109  	180.4519      	55416.4329    	3185    
110  	180.8978      	55279.8471    	3193    
111  	181.3437      	55143.9189    	3143    
112  	181.7896      	55008.6345    	3229    
113  	182.2357      	54873.9985    	3156    
114  	182.6817      	54740.0063    	3168    
115  	183.1279      	54606.6486    	3248    
116  	183.5741      	54473.9210    	3211    
117  	184.0203      	54341.8235    	3194    
118  	184.4666      	54210.3472    	3213    
119  	184.9130      	54079.4877    	3203    
120  	185.3594      	53949.2451    	3203    
121  	185.8059      	53819.6107    	3180    
122  	186.2524      	53690.5846    	3179    
123  	186.6990      	53562.1581    	3220    
124  	187.1456      	53434.3272    	3181    
125  	187.5923      	53307.0919    	3160    
126  	188.0390      	53180.4439    	3134    
127  	188.4858      	53054.3833    	3123    
128  	188.9327      	52928.9019    	3271    
129  	189.3796      	52803.9956    	3172    
130  	189.8266      	52679.6648    	3178    
131  	190.2736      	52555.9012    	3168    
132  	190.7207      	52432.7052    	3164    
133  	191.1678      	52310.0687    	3157    
134  	191.6150      	52187.9879    	3041    
135  	192.0622      	52066.4632    	3225    
136  	192.5095      	51945.4867    	3192    
137  	192.9568      	51825.0588    	3202    
138  	193.4043      	51705.1716    	3248    
139  	193.8517      	51585.8216    	3216    
140  	194.2992      	51467.0092    	3193    
141  	194.7468      	51348.7268    	3243    
142  	195.1944      	51230.9707    	3225    
143  	195.6421      	51113.7416    	3205    
144  	196.0898      	50997.0358    	3142    
145  	196.5376      	50880.8459    	3157    
146  	196.9855      	50765.1686    	3187    
147  	197.4334      	50650.0004    	3233    
148  	197.8813      	50535.3418    	3180    
149  	198.3293      	50421.1896    	3206    
150  	198.7774      	50307.5326    	3262    
151  	199.2255      	50194.3791    	3180    
152  	199.6737      	50081.7144    	3218    
153  	200.1219      	49969.5429    	3211    
154  	200.5702      	49857.8614    	3236    
155  	201.0185      	49746.6629    	3164    
156  	201.4669      	49635.9443    	3188    
157  	201.9153      	49525.7061    	3168    
158  	202.3638      	49415.9417    	3204    
159  	202.8124      	49306.6478    	3188    
160  	203.2610      	49197.8253    	3172    
161  	203.7097      	49089.4674    	3166    
162  	204.1584      	48981.5747    	3193    
163  	204.6072      	48874.1407    	3159    
164  	205.0560      	48767.1661    	3181    
165  	205.5049      	48660.6443    	3178    
166  	205.9538      	48554.5724    	3148    
167  	206.4028      	48448.9512    	3140    
168  	206.8519      	48343.7743    	3265    
169  	207.3010      	48239.0424    	3282    
170  	207.7501      	48134.7491    	3134    
171  	208.1993      	48030.8917    	3211    
172  	208.6486      	47927.4711    	3202    
173  	209.0979      	47824.4844    	3223    
174  	209.5473      	47721.9219    	3261    
175  	209.9967      	47619.7915    	3181    
176  	210.4462      	47518.0801    	3192    
177  	210.8958      	47416.7920    	3252    
178  	211.3453      	47315.9245    	3148    
179  	211.7950      	47215.4716    	3160    
180  	212.2447      	47115.4308    	3099    
181  	212.6944      	47015.8029    	3209    
182  	213.1443      	46916.5820    	3157    
183  	213.5941      	46817.7657    	3226    
184  	214.0441      	46719.3547    	3268    
185  	214.4940      	46621.3467    	3318    
186  	214.9440      	46523.7358    	3183    
187  	215.3941      	46426.5196    	3217    
188  	215.8443      	46329.6990    	3160    
189  	216.2945      	46233.2683    	3109    
190  	216.7447      	46137.2253    	3256    
191  	217.1950      	46041.5708    	3352    
192  	217.6454      	45946.3024    	3259    
193  	218.0958      	45851.4146    	3160    
194  	218.5462      	45756.9051    	3226    
195  	218.9968      	45662.7749    	3049    
196  	219.4473      	45569.0186    	3168    
197  	219.8980      	45475.6338    	3207    
198  	220.3487      	45382.6216    	3197    
199  	220.7994      	45289.9796    	3342    
200  	221.2502      	45197.7027    	3210    
201  	221.7010      	45105.7886    	3288    
202  	222.1519      	45014.2383    	3188    
203  	222.6029      	44923.0466    	3169    
204  	223.0539      	44832.2144    	3222    
205  	223.5050      	44741.7366    	3264    
206  	223.9561      	44651.6141    	3218    
207  	224.4072      	44561.8418    	3156    
208  	224.8585      	44472.4176    	3172    
209  	225.3098      	44383.3427    	3206    
210  	225.7611      	44294.6119    	3213    
211  	226.2125      	44206.2262    	3271    
212  	226.6639      	44118.1807    	3263    
213  	227.1154      	44030.4763    	3212    
214  	227.5670      	43943.1081    	3243    
215  	228.0186      	43856.0772    	3184    
216  	228.4702      	43769.3786    	3193    
217  	228.9220      	43683.0105    	3221    
218  	229.3737      	43596.9739    	3206    
219  	229.8255      	43511.2639    	3163    
220  	230.2774      	43425.8817    	3280    
221  	230.7294      	43340.8224    	3248    
222  	231.1813      	43256.0872    	3219    
223  	231.6334      	43171.6712    	3163    
224  	232.0855      	43087.5756    	3196    
225  	232.5376      	43003.7957    	3242    
226  	232.9898      	42920.3297    	3148    
227  	233.4421      	42837.1787    	3184    
228  	233.8944      	42754.3409    	3198    
229  	234.3468      	42671.8090    	3180    
230  	234.7992      	42589.5895    	3160    
231  	235.2516      	42507.6752    	3147    
232  	235.7042      	42426.0645    	3164    
233  	236.1568      	42344.7555    	3258    
234  	236.6094      	42263.7522    	3263    
235  	237.0621      	42183.0447    	3220    
236  	237.5148      	42102.6366    	3235    
237  	237.9676      	42022.5264    	3256    
238  	238.4205      	41942.7098    	3113    
239  	238.8734      	41863.1851    	3204    
240  	239.3263      	41783.9534    	3141    
241  	239.7793      	41705.0105    	3289    
242  	240.2324      	41626.3573    	3254    
243  	240.6855      	41547.9924    	3160    
244  	241.1387      	41469.9088    	3186    
245  	241.5919      	41392.1130    	3247    
246  	242.0452      	41314.5954    	3254    
247  	242.4986      	41237.3599    	3239    
248  	242.9519      	41160.4049    	3128    
249  	243.4054      	41083.7262    	3298    
250  	243.8589      	41007.3250    	3160    
251  	244.3124      	40931.1972    	3266    
252  	244.7660      	40855.3414    	3156    
253  	245.2197      	40779.7586    	3216    
254  	245.6734      	40704.4448    	3212    
255  	246.1272      	40629.4011    	3228    
256  	246.5810      	40554.6261    	3239    
257  	247.0349      	40480.1133    	3165    
258  	247.4888      	40405.8689    	3230    
259  	247.9428      	40331.8863    	3180    
260  	248.3968      	40258.1643    	3274    
261  	248.8509      	40184.7015    	3180    
262  	249.3051      	40111.5014    	3184    
263  	249.7593      	40038.5552    	3300    
264  	250.2135      	39965.8666    	3156    
265  	250.6678      	39893.4341    	3195    
266  	251.1222      	39821.2540    	3259    
267  	251.5766      	39749.3274    	3208    
268  	252.0311      	39677.6506    	3228    
269  	252.4856      	39606.2222    	3129    
270  	252.9402      	39535.0434    	3178    
271  	253.3948      	39464.1128    	3259    
272  	253.8495      	39393.4268    	3245    
273  	254.3042      	39322.9842    	3226    
274  	254.7590      	39252.7859    	3237    
275  	255.2138      	39182.8309    	3248    
276  	255.6687      	39113.1154    	3246    
277  	256.1237      	39043.6359    	3196    
278  	256.5787      	38974.4005    	3180    
279  	257.0337      	38905.4009    	3282    
280  	257.4889      	38836.6314    	3192    
281  	257.9440      	38768.1047    	3222    
282  	258.3992      	38699.8056    	3233    
283  	258.8545      	38631.7422    	3184    
284  	259.3098      	38563.9087    	3217    
285  	259.7652      	38496.3039    	3160    
286  	260.2206      	38428.9268    	3202    
287  	260.6761      	38361.7806    	3254    
288  	261.1317      	38294.8597    	3306    
289  	261.5872      	38228.1629    	3160    
290  	262.0429      	38161.6892    	3305    
291  	262.4986      	38095.4418    	3200    
292  	262.9544      	38029.4108    	3285    
293  	263.4102      	37963.6083    	3280    
294  	263.8660      	37898.0200    	3247    
295  	264.3220      	37832.6492    	3179    
296  	264.7779      	37767.4991    	3172    
297  	265.2339      	37702.5644    	3221    
298  	265.6900      	37637.8483    	3246    
299  	266.1461      	37573.3410    	3211    
300  	266.6023      	37509.0502    	3128    
301  	267.0586      	37444.9704    	3188    
302  	267.5148      	37381.1050    	3239    
303  	267.9712      	37317.4443    	3249    
304  	268.4276      	37253.9958    	3268    
305  	268.8840      	37190.7542    	3240    
306  	269.3405      	37127.7186    	3216    
307  	269.7971      	37064.8922    	3184    
308  	270.2537      	37002.2696    	3206    
309  	270.7104      	36939.8500    	3275    
310  	271.1671      	36877.6323    	3202    
311  	271.6238      	36815.6197    	3187    
312  	272.0807      	36753.8070    	3176    
313  	272.5375      	36692.1934    	3173    
314  	272.9945      	36630.7778    	3188    
315  	273.4514      	36569.5634    	3232    
316  	273.9085      	36508.5410    	3224    
317  	274.3656      	36447.7219    	3245    
318  	274.8227      	36387.0930    	3166    
319  	275.2799      	36326.6574    	3231    
320  	275.7372      	36266.4183    	3232    
321  	276.1945      	36206.3706    	3250    
322  	276.6518      	36146.5174    	3337    
323  	277.1093      	36086.8498    	3209    
324  	277.5667      	36027.3750    	3244    
325  	278.0242      	35968.0880    	3208    
326  	278.4818      	35908.9918    	3176    
327  	278.9394      	35850.0817    	3240    
328  	279.3971      	35791.3528    	3308    
329  	279.8548      	35732.8161    	3284    
330  	280.3126      	35674.4588    	3248    
331  	280.7704      	35616.2880    	3250    
332  	281.2283      	35558.2988    	3206    
333  	281.6862      	35500.4905    	3238    
334  	282.1443      	35442.8622    	3277    
335  	282.6023      	35385.4168    	3285    
336  	283.0604      	35328.1498    	3252    
337  	283.5186      	35271.0602    	3312    
338  	283.9767      	35214.1510    	3227    
339  	284.4350      	35157.4139    	3248    
340  	284.8933      	35100.8555    	3384    
341  	285.3517      	35044.4751    	3360    
342  	285.8101      	34988.2643    	3345    
343  	286.2686      	34932.2298    	3290    
344  	286.7271      	34876.3671    	3323    
345  	287.1857      	34820.6753    	3400    
346  	287.6443      	34765.1575    	3406    
347  	288.1030      	34709.8090    	3338    
348  	288.5617      	34654.6292    	3366    
349  	289.0205      	34599.6172    	3390    
350  	289.4794      	34544.7760    	3392    
351  	289.9383      	34490.1011    	3426    
352  	290.3972      	34435.5917    	3400    
353  	290.8562      	34381.2472    	3430    
354  	291.3153      	34327.0703    	3489    
355  	291.7744      	34273.0567    	3518    
356  	292.2336      	34219.2057    	3416    
357  	292.6927      	34165.5201    	3493    
358  	293.1520      	34111.9956    	3479    
359  	293.6113      	34058.6314    	3492    
360  	294.0707      	34005.4269    	3513    
361  	294.5302      	33952.3813    	3453    
362  	294.9896      	33899.4974    	3483    
363  	295.4492      	33846.7711    	3502    
364  	295.9087      	33794.2050    	3460    
365  	296.3684      	33741.7915    	3476    
366  	296.8281      	33689.5369    	3391    
367  	297.2878      	33637.4369    	3474    
368  	297.7476      	33585.4944    	3431    
369  	298.2075      	33533.7018    	3397    
370  	298.6674      	33482.0653    	3389    
371  	299.1273      	33430.5841    	3392    
372  	299.5873      	33379.2509    	3340    
373  	300.0474      	33328.0716    	3384    
374  	300.5075      	33277.0422    	3464    
375  	300.9677      	33226.1622    	3482    
376  	301.4279      	33175.4341    	3355    
377  	301.8881      	33124.8541    	3344    
378  	302.3484      	33074.4213    	3311    
379  	302.8088      	33024.1352    	3454    
380  	303.2693      	32973.9985    	3409    
381  	303.7297      	32924.0071    	3308    
382  	304.1903      	32874.1605    	3276    
383  	304.6508      	32824.4614    	3262    
384  	305.1115      	32774.9024    	3377    
385  	305.5722      	32725.4896    	3290    
386  	306.0329      	32676.2223    	3369    
387  	306.4937      	32627.0934    	3308    
388  	306.9546      	32578.1087    	3328    
389  	307.4155      	32529.2645    	3319    
390  	307.8764      	32480.5633    	3321    
391  	308.3375      	32431.9980    	3241    
392  	308.7985      	32383.5746    	3311    
393  	309.2596      	32335.2924    	3291    
394  	309.7208      	32287.1443    	3320    
395  	310.1820      	32239.1363    	3428    
396  	310.6433      	32191.2645    	3312    
397  	311.1046      	32143.5284    	3299    
398  	311.5660      	32095.9305    	3325    
399  	312.0274      	32048.4670    	3264    
400  	312.4889      	32001.1375    	3233    
401  	312.9504      	31953.9445    	3284    
402  	313.4120      	31906.8811    	3300    
403  	313.8737      	31859.9531    	3278    
404  	314.3353      	31813.1598    	3226    
405  	314.7971      	31766.4945    	3360    
406  	315.2589      	31719.9629    	3276    
407  	315.7207      	31673.5613    	3294    
408  	316.1826      	31627.2921    	3215    
409  	316.6446      	31581.1488    	3354    
410  	317.1066      	31535.1370    	3323    
411  	317.5686      	31489.2560    	3263    
412  	318.0308      	31443.4992    	3308    
413  	318.4929      	31397.8722    	3372    
414  	318.9551      	31352.3715    	3276    
415  	319.4174      	31306.9964    	3362    
416  	319.8797      	31261.7495    	3305    
417  	320.3421      	31216.6273    	3305    
418  	320.8045      	31171.6292    	3272    
419  	321.2670      	31126.7577    	3314    
420  	321.7295      	31082.0092    	3370    
421  	322.1921      	31037.3834    	3346    
422  	322.6548      	30992.8797    	3294    
423  	323.1174      	30948.5005    	3205    
424  	323.5802      	30904.2424    	3275    
425  	324.0430      	30860.1049    	3326    
426  	324.5058      	30816.0903    	3335    
427  	324.9687      	30772.1925    	3320    
428  	325.4317      	30728.4167    	3247    
429  	325.8947      	30684.7624    	3315    
430  	326.3577      	30641.2262    	3236    
431  	326.8208      	30597.8077    	3263    
432  	327.2840      	30554.5063    	3261    
433  	327.7472      	30511.3216    	3259    
434  	328.2104      	30468.2560    	3257    
435  	328.6738      	30425.3062    	3260    
436  	329.1371      	30382.4744    	3284    
437  	329.6006      	30339.7547    	3326    
438  	330.0640      	30297.1521    	3294    
439  	330.5275      	30254.6662    	3305    
440  	330.9911      	30212.2909    	3332    
441  	331.4547      	30170.0314    	3320    
442  	331.9184      	30127.8844    	3259    
443  	332.3821      	30085.8523    	3235    
444  	332.8459      	30043.9290    	3336    
445  	333.3098      	30002.1196    	3216    
446  	333.7737      	29960.4237    	3211    
447  	334.2376      	29918.8353    	3235    
448  	334.7016      	29877.3595    	3272    
449  	335.1656      	29835.9931    	3229    
450  	335.6297      	29794.7384    	3284    
451  	336.0939      	29753.5922    	3331    
452  	336.5581      	29712.5541    	3217    
453  	337.0223      	29671.6236    	3282    
454  	337.4866      	29630.8032    	3234    
455  	337.9510      	29590.0895    	3354    
456  	338.4154      	29549.4822    	3313    
457  	338.8799      	29508.9836    	3220    
458  	339.3444      	29468.5879    	3264    
459  	339.8089      	29428.3026    	3229    
460  	340.2736      	29388.1194    	3336    
461  	340.7382      	29348.0432    	3304    
462  	341.2029      	29308.0709    	3369    
463  	341.6677      	29268.2021    	3274    
464  	342.1325      	29228.4390    	3326    
465  	342.5974      	29188.7786    	3304    
466  	343.0623      	29149.2205    	3309    
467  	343.5273      	29109.7643    	3329    
468  	343.9924      	29070.4122    	3255    
469  	344.4575      	29031.1612    	3300    
470  	344.9226      	28992.0135    	3233    
471  	345.3878      	28952.9635    	3328    
472  	345.8530      	28914.0161    	3257    
473  	346.3183      	28875.1708    	3287    
474  	346.7837      	28836.4220    	3276    
475  	347.2491      	28797.7746    	3256    
476  	347.7145      	28759.2257    	3235    
477  	348.1800      	28720.7772    	3322    
478  	348.6455      	28682.4264    	3332    
479  	349.1111      	28644.1729    	3317    
480  	349.5768      	28606.0163    	3286    
481  	350.0425      	28567.9587    	3292    
482  	350.5083      	28529.9973    	3297    
483  	350.9741      	28492.1317    	3320    
484  	351.4399      	28454.3640    	3262    
485  	351.9059      	28416.6913    	3207    
486  	352.3718      	28379.1134    	3232    
487  	352.8378      	28341.6322    	3316    
488  	353.3039      	28304.2451    	3275    
489  	353.7700      	28266.9515    	3318    
490  	354.2362      	28229.7513    	3299    
491  	354.7024      	28192.6464    	3208    
492  	355.1687      	28155.6341    	3281    
493  	355.6350      	28118.7165    	3201    
494  	356.1014      	28081.8883    	3245    
495  	356.5678      	28045.1540    	3319    
496  	357.0343      	28008.5133    	3264    
497  	357.5009      	27971.9611    	3273    
498  	357.9674      	27935.5018    	3338    
499  	358.4341      	27899.1326    	3298    
500  	358.9008      	27862.8557    	3293    
501  	359.3675      	27826.6683    	3281    
502  	359.8343      	27790.5700    	3382    
503  	360.3011      	27754.5605    	3249    
504  	360.7680      	27718.6419    	3399    
505  	361.2350      	27682.8115    	3323    
506  	361.7020      	27647.0712    	3276    
507  	362.1690      	27611.4162    	3298    
508  	362.6361      	27575.8506    	3284    
509  	363.1033      	27540.3743    	3273    
510  	363.5705      	27504.9822    	3225    
511  	364.0378      	27469.6786    	3236    
512  	364.5051      	27434.4610    	3249    
513  	364.9724      	27399.3312    	3295    
514  	365.4398      	27364.2867    	3263    
515  	365.9073      	27329.3272    	3291    
516  	366.3748      	27294.4547    	3214    
517  	366.8424      	27259.6642    	3313    
518  	367.3100      	27224.9623    	3330    
519  	367.7776      	27190.3419    	3249    
520  	368.2454      	27155.8071    	3353    
521  	368.7131      	27121.3555    	3264    
522  	369.1810      	27086.9867    	3296    
523  	369.6488      	27052.7027    	3269    
524  	370.1168      	27018.5008    	3292    
525  	370.5847      	26984.3810    	3287    
526  	371.0528      	26950.3449    	3222    
527  	371.5208      	26916.3902    	3257    
528  	371.9890      	26882.5166    	3365    
529  	372.4572      	26848.7258    	3226    
530  	372.9254      	26815.0156    	3254    
531  	373.3937      	26781.3855    	3309    
532  	373.8620      	26747.8375    	3307    
533  	374.3304      	26714.3669    	3225    
534  	374.7988      	26680.9799    	3300    
535  	375.2673      	26647.6698    	3296    
536  	375.7359      	26614.4406    	3321    
537  	376.2045      	26581.2898    	3243    
538  	376.6731      	26548.2194    	3322    
539  	377.1418      	26515.2248    	3334    
540  	377.6105      	26482.3120    	3266    
541  	378.0793      	26449.4745    	3295    
542  	378.5482      	26416.7161    	3309    
543  	379.0171      	26384.0346    	3294    
544  	379.4861      	26351.4295    	3330    
545  	379.9550      	26318.9029    	3329    
546  	380.4241      	26286.4522    	3332    
547  	380.8932      	26254.0773    	3365    
548  	381.3624      	26221.7799    	3371    
549  	381.8316      	26189.5576    	3292    
550  	382.3008      	26157.4103    	3322    
551  	382.7701      	26125.3398    	3302    
552  	383.2395      	26093.3436    	3303    
553  	383.7089      	26061.4215    	3250    
554  	384.1784      	26029.5754    	3281    
555  	384.6479      	25997.8029    	3366    
556  	385.1175      	25966.1038    	3274    
557  	385.5871      	25934.4798    	3296    
558  	386.0567      	25902.9287    	3219    
559  	386.5265      	25871.4501    	3268    
560  	386.9962      	25840.0439    	3310    
561  	387.4661      	25808.7118    	3220    
562  	387.9359      	25777.4536    	3296    
563  	388.4059      	25746.2649    	3252    
564  	388.8758      	25715.1496    	3270    
565  	389.3459      	25684.1054    	3180    
566  	389.8159      	25653.1341    	3332    
567  	390.2860      	25622.2333    	3219    
568  	390.7562      	25591.4029    	3235    
569  	391.2265      	25560.6426    	3207    
570  	391.6967      	25529.9542    	3180    
571  	392.1671      	25499.3374    	3293    
572  	392.6375      	25468.7880    	3258    
573  	393.1079      	25438.3097    	3223    
574  	393.5784      	25407.9004    	3354    
575  	394.0489      	25377.5617    	3336    
576  	394.5195      	25347.2895    	3287    
577  	394.9901      	25317.0894    	3334    
578  	395.4608      	25286.9554    	3342    
579  	395.9315      	25256.8911    	3250    
580  	396.4023      	25226.8942    	3295    
581  	396.8732      	25196.9666    	3388    
582  	397.3441      	25167.1042    	3378    
583  	397.8150      	25137.3124    	3396    
584  	398.2860      	25107.5853    	3320    
585  	398.7570      	25077.9265    	3331    
586  	399.2281      	25048.3339    	3324    
587  	399.6993      	25018.8092    	3361    
588  	400.1705      	24989.3482    	3244    
589  	400.6417      	24959.9565    	3362    
590  	401.1130      	24930.6282    	3225    
591  	401.5844      	24901.3669    	3301    
592  	402.0558      	24872.1703    	3223    
593  	402.5272      	24843.0403    	3218    
594  	402.9987      	24813.9747    	3272    
595  	403.4703      	24784.9733    	3310    
596  	403.9419      	24756.0358    	3353    
597  	404.4135      	24727.1640    	3324    
598  	404.8853      	24698.3557    	3306    
599  	405.3570      	24669.6125    	3324    
600  	405.8288      	24640.9326    	3196    
601  	406.3007      	24612.3155    	3332    
602  	406.7726      	24583.7611    	3306    
603  	407.2445      	24555.2711    	3291    
604  	407.7165      	24526.8451    	3257    
605  	408.1886      	24498.4795    	3234    
606  	408.6607      	24470.1775    	3339    
607  	409.1329      	24441.9372    	3296    
608  	409.6051      	24413.7602    	3319    
609  	410.0773      	24385.6444    	3298    
610  	410.5497      	24357.5898    	3302    
611  	411.0220      	24329.5977    	3373    
612  	411.4944      	24301.6664    	3336    
613  	411.9669      	24273.7955    	3261    
614  	412.4394      	24245.9867    	3296    
615  	412.9120      	24218.2379    	3324    
616  	413.3846      	24190.5490    	3370    
617  	413.8572      	24162.9216    	3400    
618  	414.3300      	24135.3536    	3344    
619  	414.8027      	24107.8449    	3273    
620  	415.2755      	24080.3971    	3332    
621  	415.7484      	24053.0082    	3348    
622  	416.2213      	24025.6780    	3284    
623  	416.6943      	23998.4081    	3300    
624  	417.1673      	23971.1965    	3397    
625  	417.6404      	23944.0431    	3314    
626  	418.1135      	23916.9493    	3251    
627  	418.5867      	23889.9133    	3276    
628  	419.0599      	23862.9367    	3318    
629  	419.5332      	23836.0174    	3412    
630  	420.0065      	23809.1553    	3377    
631  	420.4799      	23782.3503    	3329    
632  	420.9533      	23755.6038    	3385    
633  	421.4268      	23728.9140    	3230    
634  	421.9003      	23702.2823    	3314    
635  	422.3739      	23675.7070    	3293    
636  	422.8475      	23649.1877    	3253    
637  	423.3212      	23622.7261    	3309    
638  	423.7949      	23596.3203    	3304    
639  	424.2687      	23569.9700    	3378    
640  	424.7425      	23543.6769    	3379    
641  	425.2164      	23517.4389    	3324    
642  	425.6903      	23491.2560    	3332    
643  	426.1643      	23465.1297    	3351    
644  	426.6383      	23439.0580    	3333    
645  	427.1124      	23413.0409    	3330    
646  	427.5865      	23387.0798    	3339    
647  	428.0607      	23361.1729    	3317    
648  	428.5349      	23335.3200    	3395    
649  	429.0092      	23309.5225    	3271    
650  	429.4836      	23283.7788    	3302    
651  	429.9579      	23258.0902    	3334    
652  	430.4323      	23232.4549    	3365    
653  	430.9068      	23206.8728    	3272    
654  	431.3813      	23181.3454    	3348    
655  	431.8559      	23155.8707    	3401    
656  	432.3306      	23130.4487    	3322    
657  	432.8053      	23105.0792    	3332    
658  	433.2800      	23079.7637    	3332    
659  	433.7548      	23054.5020    	3328    
660  	434.2296      	23029.2923    	3269    
661  	434.7045      	23004.1344    	3345    
662  	435.1794      	22979.0282    	3312    
663  	435.6544      	22953.9751    	3303    
664  	436.1294      	22928.9734    	3344    
665  	436.6045      	22904.0245    	3315    
666  	437.0797      	22879.1251    	3338    
667  	437.5548      	22854.2797    	3289    
668  	438.0301      	22829.4834    	3336    
669  	438.5053      	22804.7394    	3348    
670  	438.9807      	22780.0457    	3308    
671  	439.4561      	22755.4039    	3222    
672  	439.9315      	22730.8121    	3219    
673  	440.4070      	22706.2703    	3233    
674  	440.8825      	22681.7799    	3264    
675  	441.3581      	22657.3391    	3276    
676  	441.8337      	22632.9494    	3302    
677  	442.3094      	22608.6090    	3358    
678  	442.7851      	22584.3178    	3380    
679  	443.2609      	22560.0756    	3333    
680  	443.7368      	22535.8839    	3312    
681  	444.2126      	22511.7409    	3308    
682  	444.6886      	22487.6480    	3316    
683  	445.1646      	22463.6036    	3308    
684  	445.6406      	22439.6074    	3384    
685  	446.1167      	22415.6610    	3286    
686  	446.5928      	22391.7625    	3284    
687  	447.0690      	22367.9134    	3340    
688  	447.5452      	22344.1105    	3334    
689  	448.0215      	22320.3582    	3278    
690  	448.4978      	22296.6518    	3380    
691  	448.9742      	22272.9941    	3304    
692  	449.4507      	22249.3836    	3316    
693  	449.9271      	22225.8216    	3260    
694  	450.4037      	22202.3065    	3348    
695  	450.8802      	22178.8380    	3282    
696  	451.3569      	22155.4176    	3230    
697  	451.8336      	22132.0436    	3313    
698  	452.3103      	22108.7174    	3347    
699  	452.7870      	22085.4374    	3370    
700  	453.2639      	22062.2033    	3349    
701  	453.7408      	22039.0151    	3335    
702  	454.2177      	22015.8742    	3271    
703  	454.6947      	21992.7803    	3378    
704  	455.1717      	21969.7303    	3321    
705  	455.6488      	21946.7272    	3302    
706  	456.1259      	21923.7707    	3256    
707  	456.6031      	21900.8593    	3242    
708  	457.0803      	21877.9928    	3295    
709  	457.5576      	21855.1711    	3301    
710  	458.0349      	21832.3955    	3283    
711  	458.5123      	21809.6644    	3277    
712  	458.9897      	21786.9791    	3272    
713  	459.4672      	21764.3381    	3394    
714  	459.9447      	21741.7426    	3343    
715  	460.4223      	21719.1897    	3279    
716  	460.9000      	21696.6821    	3322    
717  	461.3776      	21674.2197    	3340    
718  	461.8553      	21651.8009    	3262    
719  	462.3331      	21629.4255    	3237    
720  	462.8109      	21607.0949    	3263    
721  	463.2888      	21584.8076    	3307    
722  	463.7668      	21562.5633    	3297    
723  	464.2447      	21540.3634    	3280    
724  	464.7227      	21518.2064    	3319    
725  	465.2008      	21496.0935    	3285    
726  	465.6790      	21474.0217    	3262    
727  	466.1571      	21451.9953    	3440    
728  	466.6353      	21430.0097    	3354    
729  	467.1136      	21408.0678    	3336    
730  	467.5919      	21386.1694    	3327    
731  	468.0703      	21364.3130    	3368    
732  	468.5487      	21342.4984    	3310    
733  	469.0272      	21320.7255    	3339    
734  	469.5057      	21298.9956    	3327    
735  	469.9843      	21277.3072    	3259    
736  	470.4629      	21255.6616    	3223    
737  	470.9416      	21234.0572    	3295    
738  	471.4203      	21212.4953    	3326    
739  	471.8990      	21190.9730    	3316    
740  	472.3779      	21169.4930    	3369    
741  	472.8567      	21148.0552    	3322    
742  	473.3356      	21126.6580    	3293    
743  	473.8146      	21105.3013    	3331    
744  	474.2936      	21083.9864    	3349    
745  	474.7727      	21062.7118    	3348    
746  	475.2518      	21041.4787    	3314    
747  	475.7310      	21020.2844    	3246    
748  	476.2101      	20999.1327    	3392    
749  	476.6894      	20978.0195    	3325    
750  	477.1687      	20956.9474    	3269    
751  	477.6481      	20935.9162    	3276    
752  	478.1275      	20914.9232    	3281    
753  	478.6069      	20893.9723    	3311    
754  	479.0865      	20873.0593    	3360    
755  	479.5660      	20852.1868    	3330    
756  	480.0456      	20831.3533    	3272    
757  	480.5253      	20810.5601    	3255    
758  	481.0050      	20789.8058    	3291    
759  	481.4847      	20769.0915    	3377    
760  	481.9645      	20748.4145    	3319    
761  	482.4444      	20727.7786    	3324    
762  	482.9243      	20707.1798    	3294    
763  	483.4042      	20686.6206    	3324    
764  	483.8842      	20666.1008    	3244    
765  	484.3643      	20645.6179    	3342    
766  	484.8444      	20625.1755    	3326    
767  	485.3245      	20604.7696    	3307    
768  	485.8047      	20584.4028    	3275    
769  	486.2850      	20564.0736    	3274    
770  	486.7653      	20543.7833    	3345    
771  	487.2456      	20523.5304    	3334    
772  	487.7260      	20503.3161    	3243    
773  	488.2064      	20483.1390    	3313    
774  	488.6869      	20462.9991    	3337    
775  	489.1674      	20442.8974    	3289    
776  	489.6480      	20422.8327    	3242    
777  	490.1287      	20402.8047    	3238    
778  	490.6094      	20382.8147    	3332    
779  	491.0901      	20362.8614    	3235    
780  	491.5709      	20342.9458    	3313    
781  	492.0517      	20323.0666    	3282    
782  	492.5326      	20303.2236    	3304    
783  	493.0135      	20283.4182    	3257    
784  	493.4945      	20263.6488    	3232    
785  	493.9756      	20243.9167    	3278    
786  	494.4566      	20224.2205    	3341    
787  	494.9378      	20204.5601    	3346    
788  	495.4189      	20184.9366    	3372    
789  	495.9002      	20165.3487    	3294    
790  	496.3814      	20145.7976    	3262    
791  	496.8628      	20126.2819    	3322    
792  	497.3441      	20106.8014    	3323    
793  	497.8256      	20087.3574    	3424    
794  	498.3070      	20067.9486    	3253    
795  	498.7885      	20048.5759    	3296    
796  	499.2701      	20029.2382    	3279    
797  	499.7517      	20009.9354    	3277    
798  	500.2334      	19990.6684    	3347    
799  	500.7151      	19971.4361    	3228    
800  	501.1969      	19952.2384    	3364    
801  	501.6787      	19933.0763    	3307    
802  	502.1606      	19913.9497    	3245    
803  	502.6425      	19894.8562    	3221    
804  	503.1245      	19875.7981    	3289    
805  	503.6064      	19856.7753    	3273    
806  	504.0885      	19837.7864    	3275    
807  	504.5706      	19818.8314    	3337    
808  	505.0528      	19799.9114    	3317    
809  	505.5350      	19781.0251    	3293    
810  	506.0172      	19762.1736    	3310    
811  	506.4995      	19743.3545    	3240    
812  	506.9819      	19724.5711    	3300    
813  	507.4643      	19705.8211    	3258    
814  	507.9467      	19687.1043    	3276    
815  	508.4292      	19668.4207    	3330    
816  	508.9118      	19649.7714    	3309    
817  	509.3943      	19631.1562    	3320    
818  	509.8770      	19612.5727    	3275    
819  	510.3597      	19594.0232    	3333    
820  	510.8424      	19575.5076    	3329    
821  	511.3252      	19557.0246    	3396    
822  	511.8081      	19538.5741    	3379    
823  	512.2910      	19520.1573    	3342    
824  	512.7739      	19501.7740    	3268    
825  	513.2569      	19483.4206    	3243    
826  	513.7399      	19465.1018    	3328    
827  	514.2230      	19446.8173    	3309    
828  	514.7061      	19428.5626    	3264    
829  	515.1893      	19410.3421    	3310    
830  	515.6725      	19392.1512    	3305    
831  	516.1558      	19373.9944    	3304    
832  	516.6391      	19355.8715    	3297    
833  	517.1225      	19337.7779    	3264    
834  	517.6059      	19319.7181    	3346    
835  	518.0894      	19301.6897    	3352    
836  	518.5729      	19283.6927    	3315    
837  	519.0565      	19265.7270    	3373    
838  	519.5401      	19247.7924    	3280    
839  	520.0237      	19229.8912    	3341    
840  	520.5074      	19212.0210    	3340    
841  	520.9912      	19194.1818    	3291    
842  	521.4750      	19176.3734    	3305    
843  	521.9589      	19158.5980    	3238    
844  	522.4428      	19140.8510    	3358    
845  	522.9268      	19123.1369    	3312    
846  	523.4108      	19105.4534    	3263    
847  	523.8948      	19087.8003    	3291    
848  	524.3789      	19070.1798    	3285    
849  	524.8630      	19052.5895    	3292    
850  	525.3472      	19035.0295    	3281    
851  	525.8315      	19017.4996    	3279    
852  	526.3158      	18999.9998    	3302    
853  	526.8001      	18982.5321    	3408    
854  	527.2845      	18965.0921    	3377    
855  	527.7690      	18947.6842    	3310    
856  	528.2535      	18930.3060    	3313    
857  	528.7380      	18912.9596    	3382    
858  	529.2226      	18895.6407    	3279    
859  	529.7072      	18878.3534    	3352    
860  	530.1919      	18861.0956    	3228    
861  	530.6766      	18843.8671    	3275    
862  	531.1614      	18826.6701    	3303    
863  	531.6462      	18809.5001    	3243    
864  	532.1311      	18792.3614    	3370    
865  	532.6160      	18775.2517    	3300    
866  	533.1010      	18758.1711    	3339    
867  	533.5860      	18741.1214    	3274    
868  	534.0711      	18724.0985    	3299    
869  	534.5562      	18707.1065    	3328    
870  	535.0414      	18690.1431    	3326    
871  	535.5266      	18673.2105    	3295    
872  	536.0118      	18656.3043    	3312    
873  	536.4971      	18639.4286    	3362    
874  	536.9825      	18622.5814    	3294    
875  	537.4679      	18605.7625    	3318    
876  	537.9534      	18588.9718    	3250    
877  	538.4388      	18572.2114    	3410    
878  	538.9244      	18555.4770    	3272    
879  	539.4100      	18538.7727    	3348    
880  	539.8956      	18522.0984    	3273    
881  	540.3813      	18505.4500    	3253    
882  	540.8671      	18488.8314    	3255    
883  	541.3529      	18472.2385    	3374    
884  	541.8387      	18455.6754    	3345    
885  	542.3246      	18439.1419    	3350    
886  	542.8105      	18422.6339    	3352    
887  	543.2965      	18406.1555    	3297    
888  	543.7825      	18389.7044    	3341    
889  	544.2686      	18373.2806    	3269    
890  	544.7548      	18356.8841    	3255    
891  	545.2409      	18340.5168    	3309    
892  	545.7272      	18324.1746    	3310    
893  	546.2134      	18307.8615    	3334    
894  	546.6998      	18291.5753    	3265    
895  	547.1861      	18275.3182    	3330    
896  	547.6725      	18259.0858    	3277    
897  	548.1590      	18242.8822    	3277    
898  	548.6455      	18226.7053    	3271    
899  	549.1321      	18210.5551    	3311    
900  	549.6187      	18194.4335    	3267    
901  	550.1053      	18178.3363    	3336    
902  	550.5920      	18162.2676    	3287    
903  	551.0788      	18146.2253    	3264    
904  	551.5656      	18130.2093    	3299    
905  	552.0524      	18114.2215    	3288    
906  	552.5393      	18098.2599    	3332    
907  	553.0262      	18082.3245    	3253    
908  	553.5132      	18066.4150    	3265    
909  	554.0003      	18050.5316    	3336    
910  	554.4874      	18034.6760    	3365    
911  	554.9745      	18018.8443    	3312    
912  	555.4617      	18003.0404    	3324    
913  	555.9489      	17987.2642    	3300    
914  	556.4362      	17971.5117    	3353    
915  	556.9235      	17955.7867    	3400    
916  	557.4109      	17940.0873    	3270    
917  	557.8983      	17924.4133    	3227    
918  	558.3858      	17908.7648    	3287    
919  	558.8733      	17893.1435    	3273    
920  	559.3609      	17877.5456    	3363    
921  	559.8485      	17861.9748    	3318    
922  	560.3362      	17846.4292    	3312    
923  	560.8239      	17830.9106    	3346    
924  	561.3116      	17815.4152    	3352    
925  	561.7994      	17799.9466    	3311    
926  	562.2873      	17784.5029    	3312    
927  	562.7751      	17769.0860    	3380    
928  	563.2631      	17753.6920    	3297    
929  	563.7511      	17738.3246    	3334    
930  	564.2391      	17722.9819    	3304    
931  	564.7272      	17707.6638    	3305    
932  	565.2154      	17692.3702    	3296    
933  	565.7036      	17677.1031    	3317    
934  	566.1918      	17661.8603    	3192    
935  	566.6801      	17646.6419    	3297    
936  	567.1684      	17631.4479    	3295    
937  	567.6568      	17616.2780    	3312    
938  	568.1452      	17601.1343    	3366    
939  	568.6337      	17586.0147    	3312    
940  	569.1222      	17570.9191    	3374    
941  	569.6108      	17555.8476    	3368    
942  	570.0994      	17540.8018    	3264    
943  	570.5880      	17525.7800    	3272    
944  	571.0768      	17510.7802    	3319    
945  	571.5655      	17495.8079    	3348    
946  	572.0543      	17480.8574    	3323    
947  	572.5432      	17465.9324    	3343    
948  	573.0320      	17451.0311    	3305    
949  	573.5210      	17436.1533    	3421    
950  	574.0100      	17421.2990    	3333    
951  	574.4990      	17406.4700    	3375    
952  	574.9882      	17391.6625    	3386    
953  	575.4773      	17376.8802    	3303    
954  	575.9664      	17362.1230    	3282    
955  	576.4557      	17347.3871    	3290    
956  	576.9449      	17332.6763    	3296    
957  	577.4343      	17317.9867    	3215    
958  	577.9236      	17303.3239    	3377    
959  	578.4131      	17288.6822    	3367    
960  	578.9026      	17274.0634    	3287    
961  	579.3921      	17259.4693    	3316    
962  	579.8817      	17244.8981    	3361    
963  	580.3713      	17230.3496    	3447    
964  	580.8609      	17215.8257    	3366    
965  	581.3506      	17201.3226    	3244    
966  	581.8404      	17186.8439    	3294    
967  	582.3302      	17172.3878    	3372    
968  	582.8200      	17157.9559    	3374    
969  	583.3099      	17143.5448    	3321    
970  	583.7999      	17129.1578    	3288    
971  	584.2899      	17114.7931    	3332    
972  	584.7799      	17100.4507    	3340    
973  	585.2700      	17086.1324    	3292    
974  	585.7601      	17071.8345    	3303    
975  	586.2503      	17057.5604    	3327    
976  	586.7405      	17043.3102    	3332    
977  	587.2308      	17029.0803    	3270    
978  	587.7211      	17014.8723    	3333    
979  	588.2115      	17000.6881    	3314    
980  	588.7019      	16986.5257    	3277    
981  	589.1923      	16972.3868    	3378    
982  	589.6829      	16958.2680    	3401    
983  	590.1734      	16944.1727    	3328    
984  	590.6640      	16930.0990    	3330    
985  	591.1547      	16916.0469    	3344    
986  	591.6454      	16902.0164    	3357    
987  	592.1361      	16888.0091    	3231    
988  	592.6269      	16874.0233    	3279    
989  	593.1177      	16860.0589    	3310    
990  	593.6086      	16846.1159    	3268    
991  	594.0995      	16832.1959    	3322    
992  	594.5906      	16818.2955    	3399    
993  	595.0816      	16804.4180    	3297    
994  	595.5727      	16790.5616    	3372    
995  	596.0638      	16776.7281    	3371    
996  	596.5549      	16762.9157    	3366    
997  	597.0462      	16749.1225    	3375    
998  	597.5374      	16735.3537    	3374    
999  	598.0287      	16721.6042    	3390    
1000 	598.5201      	16707.8772    	3404    
1001 	599.0115      	16694.1693    	3336    
1002 	599.5030      	16680.4839    	3440    
1003 	599.9944      	16666.8210    	3395    
1004 	600.4860      	16653.1770    	3266    
1005 	600.9776      	16639.5553    	3320    
1006 	601.4692      	16625.9542    	3290    
1007 	601.9609      	16612.3736    	3359    
1008 	602.4527      	16598.8135    	3365    
1009 	602.9445      	16585.2756    	3365    
1010 	603.4363      	16571.7580    	3378    
1011 	603.9282      	16558.2608    	3398    
1012 	604.4201      	16544.7839    	3268    
1013 	604.9120      	16531.3289    	3358    
1014 	605.4041      	16517.8940    	3381    
1015 	605.8961      	16504.4794    	3344    
1016 	606.3882      	16491.0849    	3248    
1017 	606.8804      	16477.7120    	3367    
1018 	607.3726      	16464.3576    	3266    
1019 	607.8649      	16451.0248    	3324    
1020 	608.3572      	16437.7119    	3375    
1021 	608.8495      	16424.4205    	3364    
1022 	609.3419      	16411.1490    	3296    
1023 	609.8344      	16397.8956    	3346    
1024 	610.3268      	16384.6652    	3360    
1025 	610.8193      	16371.4529    	3352    
1026 	611.3120      	16358.2603    	3388    
1027 	611.8046      	16345.0889    	3317    
1028 	612.2972      	16331.9371    	3294    
1029 	612.7899      	16318.8064    	3352    
1030 	613.2827      	16305.6935    	3388    
1031 	613.7755      	16292.6018    	3294    
1032 	614.2684      	16279.5294    	3303    
1033 	614.7613      	16266.4763    	3287    
1034 	615.2542      	16253.4442    	3323    
1035 	615.7473      	16240.4297    	3275    
1036 	616.2403      	16227.4361    	3267    
1037 	616.7334      	16214.4616    	3344    
1038 	617.2265      	16201.5078    	3385    
1039 	617.7197      	16188.5716    	3384    
1040 	618.2130      	16175.6559    	3377    
1041 	618.7062      	16162.7593    	3294    
1042 	619.1995      	16149.8832    	3347    
1043 	619.6929      	16137.0245    	3320    
1044 	620.1863      	16124.1862    	3292    
1045 	620.6798      	16111.3667    	3236    
1046 	621.1733      	16098.5660    	3286    
1047 	621.6669      	16085.7856    	3269    
1048 	622.1605      	16073.0240    	3282    
1049 	622.6541      	16060.2809    	3419    
1050 	623.1478      	16047.5566    	3397    
1051 	623.6416      	16034.8507    	3320    
1052 	624.1354      	16022.1650    	3322    
1053 	624.6292      	16009.4978    	3293    
1054 	625.1231      	15996.8491    	3346    
1055 	625.6171      	15984.2187    	3368    
1056 	626.1110      	15971.6083    	3285    
1057 	626.6050      	15959.0162    	3304    
1058 	627.0991      	15946.4424    	3387    
1059 	627.5933      	15933.8868    	3272    
1060 	628.0874      	15921.3510    	3337    
1061 	628.5816      	15908.8334    	3319    
1062 	629.0759      	15896.3339    	3327    
1063 	629.5702      	15883.8524    	3323    
1064 	630.0645      	15871.3906    	3397    
1065 	630.5590      	15858.9452    	3314    
1066 	631.0534      	15846.5193    	3267    
1067 	631.5479      	15834.1129    	3384    
1068 	632.0424      	15821.7229    	3271    
1069 	632.5370      	15809.3522    	3298    
1070 	633.0316      	15796.9993    	3171    
1071 	633.5263      	15784.6642    	3355    
1072 	634.0210      	15772.3483    	3393    
1073 	634.5158      	15760.0486    	3356    
1074 	635.0106      	15747.7681    	3308    
1075 	635.5055      	15735.5052    	3380    
1076 	636.0004      	15723.2614    	3369    
1077 	636.4953      	15711.0351    	3392    
1078 	636.9904      	15698.8248    	3419    
1079 	637.4854      	15686.6350    	3386    
1080 	637.9805      	15674.4610    	3322    
1081 	638.4756      	15662.3060    	3336    
1082 	638.9708      	15650.1668    	3320    
1083 	639.4660      	15638.0479    	3356    
1084 	639.9613      	15625.9448    	3314    
1085 	640.4567      	15613.8589    	3258    
1086 	640.9520      	15601.7917    	3323    
1087 	641.4474      	15589.7416    	3329    
1088 	641.9429      	15577.7102    	3356    
1089 	642.4384      	15565.6943    	3490    
1090 	642.9340      	15553.6970    	3425    
1091 	643.4296      	15541.7167    	3344    
1092 	643.9252      	15529.7533    	3295    
1093 	644.4209      	15517.8084    	3416    
1094 	644.9166      	15505.8803    	3388    
1095 	645.4124      	15493.9691    	3266    
1096 	645.9083      	15482.0747    	3343    
1097 	646.4042      	15470.1971    	3343    
1098 	646.9001      	15458.3377    	3317    
1099 	647.3961      	15446.4951    	3359    
1100 	647.8921      	15434.6691    	3385    
1101 	648.3881      	15422.8612    	3404    
1102 	648.8842      	15411.0699    	3308    
1103 	649.3804      	15399.2952    	3360    
1104 	649.8766      	15387.5370    	3350    
1105 	650.3729      	15375.7953    	3309    
1106 	650.8691      	15364.0715    	3365    
1107 	651.3655      	15352.3641    	3345    
1108 	651.8619      	15340.6731    	3377    
1109 	652.3583      	15328.9985    	3329    
1110 	652.8548      	15317.3417    	3340    
1111 	653.3513      	15305.7011    	3369    
1112 	653.8479      	15294.0768    	3348    
1113 	654.3445      	15282.4701    	3345    
1114 	654.8412      	15270.8782    	3430    
1115 	655.3379      	15259.3039    	3432    
1116 	655.8347      	15247.7456    	3384    
1117 	656.3314      	15236.2049    	3354    
1118 	656.8283      	15224.6788    	3397    
1119 	657.3252      	15213.1701    	3374    
1120 	657.8221      	15201.6774    	3386    
1121 	658.3191      	15190.2020    	3392    
1122 	658.8162      	15178.7412    	3348    
1123 	659.3132      	15167.2976    	3434    
1124 	659.8104      	15155.8699    	3409    
1125 	660.3075      	15144.4593    	3403    
1126 	660.8047      	15133.0632    	3400    
1127 	661.3020      	15121.6841    	3356    
1128 	661.7993      	15110.3208    	3366    
1129 	662.2966      	15098.9746    	3405    
1130 	662.7941      	15087.6426    	3398    
1131 	663.2915      	15076.3276    	3337    
1132 	663.7890      	15065.0282    	3407    
1133 	664.2865      	15053.7457    	3403    
1134 	664.7841      	15042.4773    	3392    
1135 	665.2817      	15031.2258    	3417    
1136 	665.7794      	15019.9897    	3429    
1137 	666.2771      	15008.7704    	3432    
1138 	666.7749      	14997.5651    	3461    
1139 	667.2727      	14986.3765    	3416    
1140 	667.7706      	14975.2033    	3372    
1141 	668.2684      	14964.0466    	3412    
1142 	668.7664      	14952.9039    	3393    
1143 	669.2644      	14941.7778    	3322    
1144 	669.7625      	14930.6668    	3448    
1145 	670.2605      	14919.5724    	3384    
1146 	670.7587      	14908.4917    	3291    
1147 	671.2568      	14897.4274    	3389    
1148 	671.7551      	14886.3782    	3418    
1149 	672.2533      	14875.3454    	3495    
1150 	672.7516      	14864.3263    	3455    
1151 	673.2500      	14853.3234    	3373    
1152 	673.7484      	14842.3355    	3417    
1153 	674.2469      	14831.3625    	3361    
1154 	674.7454      	14820.4057    	3463    
1155 	675.2439      	14809.4637    	3452    
1156 	675.7425      	14798.5366    	3420    
1157 	676.2411      	14787.6255    	3435    
1158 	676.7398      	14776.7279    	3445    
1159 	677.2385      	14765.8463    	3416    
1160 	677.7373      	14754.9794    	3357    
1161 	678.2361      	14744.1285    	3464    
1162 	678.7350      	14733.2909    	3490    
1163 	679.2339      	14722.4692    	3426    
1164 	679.7328      	14711.6621    	3457    
1165 	680.2318      	14700.8708    	3537    
1166 	680.7309      	14690.0928    	3389    
1167 	681.2300      	14679.3305    	3392    
1168 	681.7291      	14668.5826    	3425    
1169 	682.2283      	14657.8505    	3498    
1170 	682.7275      	14647.1314    	3387    
1171 	683.2268      	14636.4281    	3466    
1172 	683.7261      	14625.7403    	3432    
1173 	684.2255      	14615.0655    	3508    
1174 	684.7249      	14604.4064    	3540    
1175 	685.2243      	14593.7614    	3568    
1176 	685.7238      	14583.1307    	3514    
1177 	686.2234      	14572.5141    	3557    
1178 	686.7230      	14561.9130    	3485    
1179 	687.2226      	14551.3260    	3485    
1180 	687.7223      	14540.7531    	3510    
1181 	688.2220      	14530.1955    	3544    
1182 	688.7218      	14519.6507    	3431    
1183 	689.2216      	14509.1212    	3539    
1184 	689.7214      	14498.6070    	3521    
1185 	690.2214      	14488.1054    	3416    
1186 	690.7213      	14477.6190    	3548    
1187 	691.2213      	14467.1465    	3481    
1188 	691.7214      	14456.6879    	3444    
1189 	692.2214      	14446.2443    	3542    
1190 	692.7216      	14435.8146    	3465    
1191 	693.2217      	14425.3987    	3536    
1192 	693.7220      	14414.9965    	3542    
1193 	694.2222      	14404.6093    	3540    
1194 	694.7226      	14394.2346    	3545    
1195 	695.2230      	14383.8747    	3497    
1196 	695.7233      	14373.5298    	3520    
1197 	696.2238      	14363.1973    	3574    
1198 	696.7243      	14352.8795    	3565    
1199 	697.2249      	14342.5754    	3553    
1200 	697.7254      	14332.2860    	3545    
1201 	698.2261      	14322.0088    	3585    
1202 	698.7267      	14311.7464    	3476    
1203 	699.2275      	14301.4975    	3557    
1204 	699.7282      	14291.2632    	3500    
1205 	700.2290      	14281.0423    	3484    
1206 	700.7299      	14270.8335    	3547    
1207 	701.2308      	14260.6405    	3563    
1208 	701.7318      	14250.4597    	3521    
1209 	702.2327      	14240.2933    	3505    
1210 	702.7338      	14230.1402    	3476    
1211 	703.2349      	14220.0003    	3582    
1212 	703.7360      	14209.8737    	3609    
1213 	704.2372      	14199.7615    	3598    
1214 	704.7384      	14189.6624    	3587    
1215 	705.2396      	14179.5776    	3480    
1216 	705.7410      	14169.5048    	3561    
1217 	706.2423      	14159.4462    	3479    
1218 	706.7437      	14149.4007    	3461    
1219 	707.2452      	14139.3682    	3539    
1220 	707.7466      	14129.3500    	3557    
1221 	708.2482      	14119.3447    	3508    
1222 	708.7498      	14109.3523    	3539    
1223 	709.2514      	14099.3729    	3585    
1224 	709.7531      	14089.4075    	3537    
1225 	710.2548      	14079.4551    	3544    
1226 	710.7565      	14069.5155    	3604    
1227 	711.2584      	14059.5887    	3561    
1228 	711.7602      	14049.6759    	3593    
1229 	712.2621      	14039.7758    	3613    
1230 	712.7640      	14029.8885    	3540    
1231 	713.2660      	14020.0151    	3554    
1232 	713.7681      	14010.1533    	3582    
1233 	714.2701      	14000.3052    	3532    
1234 	714.7722      	13990.4710    	3592    
1235 	715.2744      	13980.6483    	3554    
1236 	715.7766      	13970.8393    	3595    
1237 	716.2789      	13961.0429    	3578    
1238 	716.7812      	13951.2590    	3416    
1239 	717.2835      	13941.4888    	3465    
1240 	717.7859      	13931.7311    	3581    
1241 	718.2883      	13921.9859    	3511    
1242 	718.7908      	13912.2531    	3542    
1243 	719.2933      	13902.5339    	3574    
1244 	719.7959      	13892.8271    	3526    
1245 	720.2985      	13883.1327    	3634    
1246 	720.8012      	13873.4507    	3570    
1247 	721.3039      	13863.7821    	3517    
1248 	721.8066      	13854.1258    	3459    
1249 	722.3094      	13844.4818    	3561    
1250 	722.8123      	13834.8512    	3520    
1251 	723.3151      	13825.2328    	3448    
1252 	723.8181      	13815.6267    	3576    
1253 	724.3210      	13806.0327    	3589    
1254 	724.8240      	13796.4520    	3532    
1255 	725.3271      	13786.8823    	3456    
1256 	725.8302      	13777.3270    	3478    
1257 	726.3334      	13767.7826    	3525    
1258 	726.8365      	13758.2515    	3567    
1259 	727.3398      	13748.7312    	3488    
1260 	727.8431      	13739.2252    	3581    
1261 	728.3464      	13729.7301    	3532    
1262 	728.8498      	13720.2481    	3497    
1263 	729.3532      	13710.7781    	3555    
1264 	729.8567      	13701.3199    	3528    
1265 	730.3602      	13691.8748    	3532    
1266 	730.8638      	13682.4404    	3487    
1267 	731.3674      	13673.0191    	3471    
1268 	731.8710      	13663.6106    	3548    
1269 	732.3747      	13654.2129    	3520    
1270 	732.8784      	13644.8281    	3530    
1271 	733.3822      	13635.4550    	3473    
1272 	733.8860      	13626.0948    	3543    
1273 	734.3899      	13616.7451    	3534    
1274 	734.8938      	13607.4083    	3552    
1275 	735.3977      	13598.0843    	3450    
1276 	735.9017      	13588.7708    	3440    
1277 	736.4058      	13579.4701    	3523    
1278 	736.9099      	13570.1809    	3490    
1279 	737.4140      	13560.9033    	3501    
1280 	737.9182      	13551.6385    	3429    
1281 	738.4224      	13542.3851    	3500    
1282 	738.9266      	13533.1432    	3570    
1283 	739.4310      	13523.9129    	3537    
1284 	739.9353      	13514.6951    	3637    
1285 	740.4397      	13505.4887    	3497    
1286 	740.9442      	13496.2938    	3575    
1287 	741.4487      	13487.1103    	3587    
1288 	741.9532      	13477.9393    	3589    
1289 	742.4578      	13468.7796    	3555    
1290 	742.9624      	13459.6313    	3568    
1291 	743.4670      	13450.4954    	3566    
1292 	743.9717      	13441.3708    	3540    
1293 	744.4765      	13432.2574    	3572    
1294 	744.9813      	13423.1553    	3521    
1295 	745.4861      	13414.0655    	3518    
1296 	745.9910      	13404.9870    	3498    
1297 	746.4960      	13395.9196    	3501    
1298 	747.0010      	13386.8634    	3578    
1299 	747.5060      	13377.8194    	3634    
1300 	748.0110      	13368.7865    	3653    
1301 	748.5161      	13359.7658    	3586    
1302 	749.0213      	13350.7552    	3545    
1303 	749.5265      	13341.7566    	3542    
1304 	750.0317      	13332.7691    	3578    
1305 	750.5370      	13323.7926    	3526    
1306 	751.0424      	13314.8282    	3589    
1307 	751.5477      	13305.8748    	3668    
1308 	752.0532      	13296.9323    	3672    
1309 	752.5586      	13288.0019    	3685    
1310 	753.0641      	13279.0823    	3736    
1311 	753.5696      	13270.1737    	3808    
1312 	754.0753      	13261.2759    	3722    
1313 	754.5809      	13252.3889    	3760    
1314 	755.0866      	13243.5139    	3741    
1315 	755.5923      	13234.6497    	3640    
1316 	756.0981      	13225.7973    	3715    
1317 	756.6039      	13216.9557    	3658    
1318 	757.1097      	13208.1249    	3712    
1319 	757.6157      	13199.3047    	3767    
1320 	758.1216      	13190.4953    	3745    
1321 	758.6276      	13181.6977    	3842    
1322 	759.1337      	13172.9107    	3929    
1323 	759.6397      	13164.1354    	3922    
1324 	760.1459      	13155.3697    	3780    
1325 	760.6520      	13146.6157    	3750    
1326 	761.1583      	13137.8722    	3780    
1327 	761.6645      	13129.1404    	3970    
1328 	762.1708      	13120.4191    	3931    
1329 	762.6771      	13111.7083    	3976    
1330 	763.1835      	13103.0081    	3932    
1331 	763.6900      	13094.3183    	3930    
1332 	764.1965      	13085.6401    	3982    
1333 	764.7030      	13076.9723    	4083    
1334 	765.2095      	13068.3160    	4145    
1335 	765.7161      	13059.6701    	4205    
1336 	766.2228      	13051.0336    	4357    
1337 	766.7295      	13042.4095    	4389    
1338 	767.2363      	13033.7947    	4401    
1339 	767.7430      	13025.1913    	4328    
1340 	768.2499      	13016.5982    	4358    
1341 	768.7567      	13008.0165    	4364    
1342 	769.2637      	12999.4440    	4530    
1343 	769.7706      	12990.8828    	4590    
1344 	770.2776      	12982.3318    	4693    
1345 	770.7847      	12973.7921    	4640    
1346 	771.2917      	12965.2625    	4761    
1347 	771.7989      	12956.7432    	4818    
1348 	772.3061      	12948.2340    	4988    
1349 	772.8133      	12939.7360    	4849    
1350 	773.3206      	12931.2481    	4902    
1351 	773.8279      	12922.7704    	5084    
1352 	774.3353      	12914.3027    	5052    
1353 	774.8427      	12905.8461    	5208    
1354 	775.3501      	12897.3995    	5184    
1355 	775.8576      	12888.9630    	5408    
1356 	776.3651      	12880.5376    	5379    
1357 	776.8727      	12872.1221    	5492    
1358 	777.3803      	12863.7166    	5544    
1359 	777.8880      	12855.3211    	5550    
1360 	778.3957      	12846.9365    	5449    
1361 	778.9034      	12838.5618    	5518    
1362 	779.4113      	12830.1971    	5486    
1363 	779.9191      	12821.8432    	5676    
1364 	780.4269      	12813.4992    	5742    
1365 	780.9349      	12805.1651    	5962    
1366 	781.4429      	12796.8408    	6105    
1367 	781.9509      	12788.5273    	6260    
1368 	782.4589      	12780.2236    	6453    
1369 	782.9670      	12771.9297    	6709    
1370 	783.4752      	12763.6465    	6879    
1371 	783.9833      	12755.3731    	7034    
1372 	784.4916      	12747.1095    	7208    
1373 	784.9999      	12738.8555    	7428    
1374 	785.5082      	12730.6122    	7423    
1375 	786.0165      	12722.3786    	7610    
1376 	786.5250      	12714.1546    	7868    
1377 	787.0334      	12705.9413    	7876    
1378 	787.5419      	12697.7376    	8054    
1379 	788.0504      	12689.5435    	8224    
1380 	788.5590      	12681.3590    	8656    
1381 	789.0676      	12673.1850    	8807    
1382 	789.5763      	12665.0206    	9012    
1383 	790.0850      	12656.8657    	9460    
1384 	790.5938      	12648.7213    	10120   
1385 	791.1026      	12640.5854    	10474   
1386 	791.6114      	12632.4610    	10828   
1387 	792.1203      	12624.3451    	10971   
1388 	792.6292      	12616.2395    	10498   
1389 	793.1382      	12608.1435    	9232    
1390 	793.6472      	12600.0568    	8246    
1391 	794.1563      	12591.9795    	7987    
1392 	794.6654      	12583.9126    	8880    
1393 	795.1746      	12575.8550    	9838    
1394 	795.6837      	12567.8078    	10136   
1395 	796.1929      	12559.7699    	9423    
1396 	796.7022      	12551.7413    	8979    
1397 	797.2115      	12543.7220    	11096   
1398 	797.7209      	12535.7119    	16097   
1399 	798.2303      	12527.7121    	22265   
1400 	798.7398      	12519.7216    	27476   
1401 	799.2493      	12511.7412    	30444   
1402 	799.7588      	12503.7701    	31248   
1403 	800.2684      	12495.8081    	34824   
1404 	800.7780      	12487.8553    	42408   
1405 	801.2877      	12479.9127    	52016   
1406 	801.7974      	12471.9782    	61653   
1407 	802.3071      	12464.0548    	65535   
1408 	802.8170      	12456.1395    	65535   
1409 	803.3268      	12448.2343    	65535   
1410 	803.8367      	12440.3382    	65535   
1411 	804.3466      	12432.4511    	65535   
1412 	804.8566      	12424.5740    	65535   
1413 	805.3666      	12416.7060    	65535   
1414 	805.8766      	12408.8470    	65535   
1415 	806.3867      	12400.9979    	65535   
1416 	806.8969      	12393.1569    	65535   
1417 	807.4071      	12385.3257    	65535   
1418 	807.9173      	12377.5045    	65535   
1419 	808.4276      	12369.6913    	65535   
1420 	808.9379      	12361.8879    	65535   
1421 	809.4482      	12354.0944    	65535   
1422 	809.9587      	12346.3088    	65535   
1423 	810.4691      	12338.5331    	65535   
1424 	810.9796      	12330.7662    	65535   
1425 	811.4901      	12323.0091    	65535   
1426 	812.0007      	12315.2598    	65535   
1427 	812.5114      	12307.5203    	65535   
1428 	813.0220      	12299.7906    	65535   
1429 	813.5327      	12292.0687    	65535   
1430 	814.0435      	12284.3565    	65535   
1431 	814.5543      	12276.6530    	62405   
1432 	815.0651      	12268.9592    	37545   
1433 	815.5759      	12261.2741    	37285   
1434 	816.0869      	12253.5977    	37985   
1435 	816.5978      	12245.9300    	35269   
1436 	817.1088      	12238.2719    	30522   
1437 	817.6199      	12230.6225    	24245   
1438 	818.1310      	12222.9817    	18036   
1439 	818.6422      	12215.3495    	14115   
1440 	819.1533      	12207.7269    	12447   
1441 	819.6646      	12200.1128    	12474   
1442 	820.1758      	12192.5083    	13061   
1443 	820.6871      	12184.9114    	13346   
1444 	821.1985      	12177.3240    	12666   
1445 	821.7098      	12169.7460    	11141   
1446 	822.2213      	12162.1756    	9966    
1447 	822.7328      	12154.6147    	8322    
1448 	823.2443      	12147.0622    	7567    
1449 	823.7559      	12139.5191    	7512    
1450 	824.2675      	12131.9845    	7676    
1451 	824.7791      	12124.4583    	7808    
1452 	825.2908      	12116.9406    	7708    
1453 	825.8026      	12109.4322    	7351    
1454 	826.3143      	12101.9322    	7000    
1455 	826.8262      	12094.4406    	6733    
1456 	827.3380      	12086.9582    	6534    
1457 	827.8500      	12079.4834    	6332    
1458 	828.3619      	12072.0186    	6284    
1459 	828.8739      	12064.5613    	5902    
1460 	829.3859      	12057.1132    	5660    
1461 	829.8980      	12049.6734    	5445    
1462 	830.4102      	12042.2419    	5317    
1463 	830.9223      	12034.8196    	5218    
1464 	831.4345      	12027.4055    	4979    
1465 	831.9468      	12019.9997    	4926    
1466 	832.4590      	12012.6030    	4945    
1467 	832.9714      	12005.2145    	4965    
1468 	833.4838      	11997.8342    	4914    
1469 	833.9962      	11990.4621    	4820    
1470 	834.5087      	11983.0990    	4712    
1471 	835.0212      	11975.7441    	4734    
1472 	835.5338      	11968.3974    	4732    
1473 	836.0463      	11961.0597    	4637    
1474 	836.5590      	11953.7301    	4749    
1475 	837.0717      	11946.4086    	4603    
1476 	837.5844      	11939.0960    	4453    
1477 	838.0972      	11931.7907    	4358    
1478 	838.6099      	11924.4952    	4357    
1479 	839.1228      	11917.2068    	4335    
1480 	839.6357      	11909.9274    	4273    
1481 	840.1486      	11902.6560    	4142    
1482 	840.6616      	11895.3926    	4176    
1483 	841.1746      	11888.1380    	4127    
1484 	841.6877      	11880.8915    	4108    
1485 	842.2008      	11873.6529    	4052    
1486 	842.7139      	11866.4231    	4076    
1487 	843.2272      	11859.2004    	3948    
1488 	843.7404      	11851.9873    	3970    
1489 	844.2537      	11844.7813    	3992    
1490 	844.7670      	11837.5841    	3881    
1491 	845.2803      	11830.3947    	3892    
1492 	845.7938      	11823.2132    	3909    
1493 	846.3072      	11816.0405    	3829    
1494 	846.8207      	11808.8755    	3862    
1495 	847.3342      	11801.7185    	3886    
1496 	847.8478      	11794.5700    	3858    
1497 	848.3615      	11787.4286    	3788    
1498 	848.8751      	11780.2966    	3729    
1499 	849.3888      	11773.1716    	3736    
1500 	849.9025      	11766.0551    	3744    
1501 	850.4163      	11758.9465    	3666    
1502 	850.9302      	11751.8456    	3820    
1503 	851.4440      	11744.7532    	3832    
1504 	851.9579      	11737.6686    	3764    
1505 	852.4719      	11730.5916    	3733    
1506 	852.9859      	11723.5232    	3677    
1507 	853.4999      	11716.4625    	3655    
1508 	854.0140      	11709.4094    	3650    
1509 	854.5281      	11702.3648    	3672    
1510 	855.0423      	11695.3279    	3600    
1511 	855.5565      	11688.2985    	3582    
1512 	856.0708      	11681.2768    	3653    
1513 	856.5851      	11674.2635    	3664    
1514 	857.0994      	11667.2578    	3537    
1515 	857.6138      	11660.2597    	3674    
1516 	858.1282      	11653.2700    	3651    
1517 	858.6427      	11646.2878    	3610    
1518 	859.1572      	11639.3131    	3552    
1519 	859.6718      	11632.3468    	3600    
1520 	860.1863      	11625.3880    	3564    
1521 	860.7010      	11618.4368    	3520    
1522 	861.2157      	11611.4929    	3654    
1523 	861.7304      	11604.5574    	3501    
1524 	862.2452      	11597.6294    	3508    
1525 	862.7599      	11590.7096    	3488    
1526 	863.2748      	11583.7972    	3495    
1527 	863.7897      	11576.8923    	3526    
1528 	864.3046      	11569.9948    	3528    
1529 	864.8196      	11563.1055    	3629    
1530 	865.3346      	11556.2235    	3528    
1531 	865.8497      	11549.3490    	3509    
1532 	866.3648      	11542.4818    	3440    
1533 	866.8799      	11535.6227    	3518    
1534 	867.3951      	11528.7719    	3535    
1535 	867.9103      	11521.9275    	3422    
1536 	868.4256      	11515.0912    	3432    
1537 	868.9409      	11508.2623    	3509    
1538 	869.4563      	11501.4406    	3481    
1539 	869.9717      	11494.6270    	3404    
1540 	870.4871      	11487.8207    	3506    
1541 	871.0026      	11481.0225    	3453    
1542 	871.5181      	11474.2306    	3396    
1543 	872.0337      	11467.4468    	3459    
1544 	872.5493      	11460.6711    	3388    
1545 	873.0649      	11453.9017    	3411    
1546 	873.5806      	11447.1403    	3420    
1547 	874.0964      	11440.3861    	3400    
1548 	874.6121      	11433.6398    	3394    
1549 	875.1279      	11426.9008    	3504    
1550 	875.6438      	11420.1688    	3490    
1551 	876.1597      	11413.4440    	3377    
1552 	876.6757      	11406.7271    	3448    
1553 	877.1917      	11400.0173    	3523    
1554 	877.7076      	11393.3154    	3500    
1555 	878.2238      	11386.6198    	3413    
1556 	878.7399      	11379.9321    	3440    
1557 	879.2560      	11373.2522    	3495    
1558 	879.7722      	11366.5785    	3416    
1559 	880.2885      	11359.9127    	3451    
1560 	880.8047      	11353.2547    	3484    
1561 	881.3210      	11346.6030    	3415    
1562 	881.8374      	11339.9590    	3386    
1563 	882.3538      	11333.3220    	3441    
1564 	882.8702      	11326.6928    	3468    
1565 	883.3867      	11320.0706    	3461    
1566 	883.9033      	11313.4553    	3396    
1567 	884.4198      	11306.8477    	3433    
1568 	884.9365      	11300.2463    	3475    
1569 	885.4531      	11293.6526    	3509    
1570 	885.9698      	11287.0666    	3574    
1571 	886.4865      	11280.4875    	3515    
1572 	887.0033      	11273.9153    	3519    
1573 	887.5201      	11267.3499    	3412    
1574 	888.0370      	11260.7922    	3431    
1575 	888.5539      	11254.2414    	3299    
1576 	889.0709      	11247.6974    	3307    
1577 	889.5878      	11241.1610    	3367    
1578 	890.1049      	11234.6314    	3308    
1579 	890.6219      	11228.1086    	3386    
1580 	891.1391      	11221.5927    	3404    
1581 	891.6563      	11215.0843    	3400    
1582 	892.1735      	11208.5827    	3409    
1583 	892.6907      	11202.0886    	3452    
1584 	893.2079      	11195.6012    	3416    
1585 	893.7253      	11189.1207    	3409    
1586 	894.2427      	11182.6468    	3424    
1587 	894.7601      	11176.1804    	3522    
1588 	895.2775      	11169.7208    	3400    
1589 	895.7950      	11163.2686    	3384    
1590 	896.3126      	11156.8223    	3397    
1591 	896.8301      	11150.3843    	3328    
1592 	897.3477      	11143.9521    	3295    
1593 	897.8654      	11137.5274    	3314    
1594 	898.3831      	11131.1093    	3320    
1595 	898.9008      	11124.6979    	3398    
1596 	899.4186      	11118.2938    	3424    
1597 	899.9364      	11111.8963    	3335    
1598 	900.4543      	11105.5055    	3370    
1599 	900.9722      	11099.1212    	3386    
1600 	901.4902      	11092.7443    	3390    
1601 	902.0081      	11086.3747    	3362    
1602 	902.5262      	11080.0109    	3474    
1603 	903.0443      	11073.6545    	3408    
1604 	903.5624      	11067.3045    	3432    
1605 	904.0805      	11060.9619    	3322    
1606 	904.5987      	11054.6257    	3386    
1607 	905.1169      	11048.2961    	3273    
1608 	905.6353      	11041.9730    	3337    
1609 	906.1536      	11035.6571    	3344    
1610 	906.6719      	11029.3477    	3387    
1611 	907.1904      	11023.0447    	3374    
1612 	907.7088      	11016.7490    	3325    
1613 	908.2273      	11010.4597    	3336    
1614 	908.7458      	11004.1775    	3284    
1615 	909.2644      	10997.9011    	3251    
1616 	909.7830      	10991.6318    	3350    
1617 	910.3016      	10985.3697    	3344    
1618 	910.8203      	10979.1140    	3318    
1619 	911.3391      	10972.8646    	3279    
1620 	911.8578      	10966.6216    	3266    
1621 	912.3767      	10960.3850    	3354    
1622 	912.8956      	10954.1555    	3331    
1623 	913.4144      	10947.9330    	3296    
1624 	913.9334      	10941.7162    	3275    
1625 	914.4524      	10935.5064    	3371    
1626 	914.9714      	10929.3037    	3386    
1627 	915.4905      	10923.1065    	3372    
1628 	916.0096      	10916.9164    	3383    
1629 	916.5287      	10910.7325    	3313    
1630 	917.0479      	10904.5557    	3354    
1631 	917.5671      	10898.3851    	3336    
1632 	918.0864      	10892.2207    	3375    
1633 	918.6058      	10886.0626    	3248    
1634 	919.1251      	10879.9115    	3382    
1635 	919.6445      	10873.7666    	3329    
1636 	920.1639      	10867.6286    	3340    
1637 	920.6834      	10861.4969    	3329    
1638 	921.2029      	10855.3713    	3350    
1639 	921.7225      	10849.2519    	3286    
1640 	922.2421      	10843.1395    	3312    
1641 	922.7618      	10837.0332    	3308    
1642 	923.2814      	10830.9337    	3394    
1643 	923.8012      	10824.8397    	3292    
1644 	924.3210      	10818.7525    	3301    
1645 	924.8408      	10812.6722    	3290    
1646 	925.3606      	10806.5980    	3298    
1647 	925.8805      	10800.5300    	3324    
1648 	926.4005      	10794.4680    	3383    
1649 	926.9204      	10788.4128    	3238    
1650 	927.4404      	10782.3637    	3288    
1651 	927.9605      	10776.3206    	3392    
1652 	928.4806      	10770.2844    	3326    
1653 	929.0007      	10764.2542    	3330    
1654 	929.5209      	10758.2300    	3346    
1655 	930.0411      	10752.2126    	3392    
1656 	930.5614      	10746.2011    	3354    
1657 	931.0817      	10740.1958    	3389    
1658 	931.6021      	10734.1971    	3298    
1659 	932.1224      	10728.2044    	3469    
1660 	932.6429      	10722.2177    	3364    
1661 	933.1633      	10716.2376    	3410    
1662 	933.6838      	10710.2636    	3368    
1663 	934.2044      	10704.2955    	3362    
1664 	934.7250      	10698.3340    	3384    
1665 	935.2456      	10692.3785    	3267    
1666 	935.7663      	10686.4289    	3348    
1667 	936.2870      	10680.4859    	3385    
1668 	936.8077      	10674.5489    	3388    
1669 	937.3286      	10668.6177    	3491    
1670 	937.8494      	10662.6925    	3433    
1671 	938.3703      	10656.7738    	3368    
1672 	938.8912      	10650.8616    	3472    
1673 	939.4122      	10644.9547    	3464    
1674 	939.9332      	10639.0543    	3406    
1675 	940.4542      	10633.1598    	3570    
1676 	940.9753      	10627.2717    	3536    
1677 	941.4964      	10621.3895    	3473    
1678 	942.0176      	10615.5132    	3398    
1679 	942.5388      	10609.6433    	3526    
1680 	943.0600      	10603.7792    	3562    
1681 	943.5813      	10597.9209    	3511    
1682 	944.1027      	10592.0684    	3465    
1683 	944.6240      	10586.2224    	3500    
1684 	945.1454      	10580.3821    	3507    
1685 	945.6669      	10574.5483    	3466    
1686 	946.1884      	10568.7202    	3626    
1687 	946.7099      	10562.8979    	3588    
1688 	947.2314      	10557.0820    	3601    
1689 	947.7531      	10551.2717    	3590    
1690 	948.2747      	10545.4673    	3518    
1691 	948.7964      	10539.6685    	3471    
1692 	949.3182      	10533.8760    	3456    
1693 	949.8400      	10528.0893    	3448    
1694 	950.3618      	10522.3089    	3449    
1695 	950.8836      	10516.5342    	3408    
1696 	951.4055      	10510.7652    	3548    
1697 	951.9274      	10505.0025    	3756    
1698 	952.4495      	10499.2447    	3638    
1699 	952.9714      	10493.4940    	3601    
1700 	953.4935      	10487.7481    	3570    
1701 	954.0156      	10482.0086    	3452    
1702 	954.5378      	10476.2747    	3450    
1703 	955.0599      	10470.5470    	3421    
1704 	955.5822      	10464.8250    	3569    
1705 	956.1044      	10459.1085    	3509    
1706 	956.6268      	10453.3976    	3414    
1707 	957.1491      	10447.6930    	3464    
1708 	957.6714      	10441.9945    	3534    
1709 	958.1939      	10436.3010    	3475    
1710 	958.7164      	10430.6136    	3576    
1711 	959.2389      	10424.9318    	3521    
1712 	959.7614      	10419.2561    	3576    
1713 	960.2840      	10413.5860    	3471    
1714 	960.8066      	10407.9214    	3484    
1715 	961.3293      	10402.2623    	3550    
1716 	961.8521      	10396.6093    	3570    
1717 	962.3748      	10390.9625    	3496    
1718 	962.8976      	10385.3205    	3647    
1719 	963.4204      	10379.6846    	3419    
1720 	963.9433      	10374.0542    	3433    
1721 	964.4662      	10368.4299    	3429    
1722 	964.9891      	10362.8110    	3440    
1723 	965.5121      	10357.1975    	3466    
1724 	966.0352      	10351.5901    	3345    
1725 	966.5582      	10345.9882    	3360    
1726 	967.0814      	10340.3916    	3408    
1727 	967.6046      	10334.8005    	3354    
1728 	968.1277      	10329.2154    	3352    
1729 	968.6509      	10323.6363    	3499    
1730 	969.1743      	10318.0619    	3428    
1731 	969.6976      	10312.4936    	3461    
1732 	970.2209      	10306.9313    	3368    
1733 	970.7443      	10301.3737    	3515    
1734 	971.2678      	10295.8220    	3332    
1735 	971.7912      	10290.2764    	3361    
1736 	972.3148      	10284.7354    	3240    
1737 	972.8383      	10279.2004    	3269    
1738 	973.3619      	10273.6707    	3270    
1739 	973.8856      	10268.1469    	3340    
1740 	974.4092      	10262.6285    	3292    
1741 	974.9329      	10257.1159    	3346    
1742 	975.4567      	10251.6080    	3325    
1743 	975.9805      	10246.1060    	3365    
1744 	976.5043      	10240.6100    	3273    
1745 	977.0283      	10235.1185    	3370    
1746 	977.5522      	10229.6329    	3327    
1747 	978.0761      	10224.1532    	3202    
1748 	978.6001      	10218.6787    	3192    
1749 	979.1241      	10213.2095    	3290    
1750 	979.6483      	10207.7454    	3267    
1751 	980.1724      	10202.2872    	3259    
1752 	980.6965      	10196.8343    	3326    
1753 	981.2208      	10191.3864    	3229    
1754 	981.7450      	10185.9445    	3233    
1755 	982.2693      	10180.5077    	3227    
1756 	982.7936      	10175.0767    	3225    
1757 	983.3180      	10169.6502    	3258    
1758 	983.8423      	10164.2301    	3348    
1759 	984.3668      	10158.8146    	3351    
1760 	984.8913      	10153.4048    	3161    
1761 	985.4158      	10148.0001    	3316    
1762 	985.9404      	10142.6012    	3282    
1763 	986.4650      	10137.2074    	3291    
1764 	986.9896      	10131.8188    	3264    
1765 	987.5143      	10126.4352    	3242    
1766 	988.0391      	10121.0573    	3284    
1767 	988.5638      	10115.6846    	3302    
1768 	989.0886      	10110.3175    	3289    
1769 	989.6135      	10104.9555    	3328    
1770 	990.1384      	10099.5985    	3359    
1771 	990.6633      	10094.2473    	3261    
1772 	991.1882      	10088.9011    	3255    
1773 	991.7133      	10083.5599    	3284    
1774 	992.2383      	10078.2243    	3265    
1775 	992.7634      	10072.8938    	3189    
1776 	993.2885      	10067.5684    	3291    
1777 	993.8137      	10062.2485    	3292    
1778 	994.3389      	10056.9336    	3316    
1779 	994.8641      	10051.6238    	3268    
1780 	995.3894      	10046.3195    	3326    
1781 	995.9147      	10041.0202    	3241    
1782 	996.4401      	10035.7259    	3285    
1783 	996.9655      	10030.4372    	3320    
1784 	997.4910      	10025.1534    	3416    
1785 	998.0164      	10019.8752    	3602    
1786 	998.5420      	10014.6014    	3732    
1787 	999.0675      	10009.3337    	3509    
1788 	999.5931      	10004.0703    	3418    
1789 	1000.1188     	9998.8124     	3367    
1790 	1000.6445     	9993.5594     	3478    
1791 	1001.1702     	9988.3120     	3422    
1792 	1001.6959     	9983.0695     	3368    
1793 	1002.2217     	9977.8318     	3279    
1794 	1002.7476     	9972.5991     	3448    
1795 	1003.2735     	9967.3718     	3364    
1796 	1003.7994     	9962.1494     	3334    
1797 	1004.3254     	9956.9325     	3379    
1798 	1004.8514     	9951.7204     	3393    
1799 	1005.3774     	9946.5132     	3334    
1800 	1005.9035     	9941.3114     	3381    
1801 	1006.4296     	9936.1145     	3377    
1802 	1006.9558     	9930.9224     	3356    
1803 	1007.4820     	9925.7357     	3436    
1804 	1008.0082     	9920.5538     	3406    
1805 	1008.5345     	9915.3774     	3373    
1806 	1009.0609     	9910.2051     	3323    
1807 	1009.5872     	9905.0382     	3483    
1808 	1010.1136     	9899.8767     	3443    
1809 	1010.6400     	9894.7200     	3369    
1810 	1011.1665     	9889.5681     	3422    
1811 	1011.6931     	9884.4209     	3339    
1812 	1012.2196     	9879.2791     	3448    
1813 	1012.7462     	9874.1421     	3465    
1814 	1013.2728     	9869.0103     	3424    
1815 	1013.7995     	9863.8833     	3513    
1816 	1014.3262     	9858.7611     	3381    
1817 	1014.8530     	9853.6442     	3444    
1818 	1015.3798     	9848.5319     	3465    
1819 	1015.9066     	9843.4244     	3459    
1820 	1016.4335     	9838.3222     	3504    
1821 	1016.9604     	9833.2247     	3468    
1822 	1017.4874     	9828.1319     	3481    
1823 	1018.0143     	9823.0443     	3522    
1824 	1018.5414     	9817.9614     	3546    
1825 	1019.0685     	9812.8832     	3553    
1826 	1019.5956     	9807.8103     	3507    
1827 	1020.1227     	9802.7420     	3521    
1828 	1020.6499     	9797.6789     	3583    
1829 	1021.1771     	9792.6205     	3626    
1830 	1021.7044     	9787.5667     	3560    
1831 	1022.2318     	9782.5175     	3696    
1832 	1022.7591     	9777.4736     	3731    
1833 	1023.2864     	9772.4348     	3813    
1834 	1023.8139     	9767.4001     	3751    
1835 	1024.3413     	9762.3711     	3755    
1836 	1024.8689     	9757.3456     	3690    
1837 	1025.3964     	9752.3264     	3825    
1838 	1025.9240     	9747.3112     	3817    
1839 	1026.4517     	9742.3000     	3832    
1840 	1026.9792     	9737.2951     	3883    
1841 	1027.5070     	9732.2942     	3880    
1842 	1028.0348     	9727.2973     	3894    
1843 	1028.5625     	9722.3066     	3968    
1844 	1029.0903     	9717.3199     	4090    
1845 	1029.6182     	9712.3384     	4014    
1846 	1030.1461     	9707.3608     	3978    
1847 	1030.6741     	9702.3882     	4076    
1848 	1031.2020     	9697.4208     	4090    
1849 	1031.7301     	9692.4573     	4118    
1850 	1032.2581     	9687.5001     	4210    
1851 	1032.7863     	9682.5456     	4215    
1852 	1033.3143     	9677.5973     	4335    
1853 	1033.8425     	9672.6530     	4274    
1854 	1034.3707     	9667.7136     	4347    
1855 	1034.8990     	9662.7782     	4538    
1856 	1035.4272     	9657.8490     	4572    
1857 	1035.9557     	9652.9225     	4689    
1858 	1036.4840     	9648.0022     	4587    
1859 	1037.0125     	9643.0858     	4724    
1860 	1037.5409     	9638.1743     	4773    
1861 	1038.0693     	9633.2679     	4749    
1862 	1038.5979     	9628.3653     	4988    
1863 	1039.1265     	9623.4677     	5010    
1864 	1039.6550     	9618.5751     	5111    
1865 	1040.1837     	9613.6864     	5244    
1866 	1040.7124     	9608.8026     	5308    
1867 	1041.2411     	9603.9237     	5311    
1868 	1041.7699     	9599.0487     	5404    
1869 	1042.2987     	9594.1787     	5493    
1870 	1042.8275     	9589.3135     	5592    
1871 	1043.3564     	9584.4522     	5786    
1872 	1043.8854     	9579.5958     	5818    
1873 	1044.4143     	9574.7444     	6032    
1874 	1044.9432     	9569.8978     	6166    
1875 	1045.4723     	9565.0550     	6278    
1876 	1046.0015     	9560.2161     	6358    
1877 	1046.5305     	9555.3831     	6443    
1878 	1047.0597     	9550.5539     	6802    
1879 	1047.5889     	9545.7295     	7050    
1880 	1048.1182     	9540.9090     	7470    
1881 	1048.6473     	9536.0944     	7839    
1882 	1049.1766     	9531.2835     	8025    
1883 	1049.7061     	9526.4764     	8329    
1884 	1050.2355     	9521.6742     	8585    
1885 	1050.7649     	9516.8768     	8910    
1886 	1051.2943     	9512.0842     	9243    
1887 	1051.8239     	9507.2953     	9836    
1888 	1052.3534     	9502.5113     	10508   
1889 	1052.8829     	9497.7321     	11107   
1890 	1053.4126     	9492.9565     	11543   
1891 	1053.9423     	9488.1858     	12222   
1892 	1054.4719     	9483.4199     	13283   
1893 	1055.0017     	9478.6576     	14119   
1894 	1055.5315     	9473.9002     	15425   
1895 	1056.0613     	9469.1475     	16618   
1896 	1056.5912     	9464.3985     	17559   
1897 	1057.1211     	9459.6542     	18720   
1898 	1057.6510     	9454.9147     	19668   
1899 	1058.1809     	9450.1799     	21276   
1900 	1058.7109     	9445.4488     	22953   
1901 	1059.2410     	9440.7225     	23943   
1902 	1059.7711     	9435.9997     	24784   
1903 	1060.3013     	9431.2817     	26595   
1904 	1060.8314     	9426.5684     	28732   
1905 	1061.3616     	9421.8599     	31001   
1906 	1061.8918     	9417.1549     	33912   
1907 	1062.4221     	9412.4546     	36939   
1908 	1062.9525     	9407.7580     	41617   
1909 	1063.4828     	9403.0671     	48696   
1910 	1064.0132     	9398.3798     	61027   
1911 	1064.5437     	9393.6961     	65535   
1912 	1065.0741     	9389.0181     	65535   
1913 	1065.6046     	9384.3437     	65535   
1914 	1066.1353     	9379.6729     	65535   
1915 	1066.6658     	9375.0079     	65535   
1916 	1067.1964     	9370.3464     	65535   
1917 	1067.7271     	9365.6895     	65535   
1918 	1068.2578     	9361.0361     	65535   
1919 	1068.7886     	9356.3874     	65535   
1920 	1069.3193     	9351.7434     	65535   
1921 	1069.8502     	9347.1028     	65535   
1922 	1070.3810     	9342.4679     	60218   
1923 	1070.9120     	9337.8355     	42685   
1924 	1071.4429     	9333.2088     	38335   
1925 	1071.9739     	9328.5855     	35328   
1926 	1072.5049     	9323.9669     	32356   
1927 	1073.0359     	9319.3528     	30950   
1928 	1073.5670     	9314.7422     	30911   
1929 	1074.0981     	9310.1362     	28684   
1930 	1074.6294     	9305.5337     	26288   
1931 	1075.1605     	9300.9367     	24791   
1932 	1075.6918     	9296.3433     	23043   
1933 	1076.2231     	9291.7533     	21448   
1934 	1076.7544     	9287.1690     	19652   
1935 	1077.2858     	9282.5881     	18001   
1936 	1077.8171     	9278.0117     	16299   
1937 	1078.3486     	9273.4388     	15286   
1938 	1078.8801     	9268.8703     	14296   
1939 	1079.4116     	9264.3064     	13432   
1940 	1079.9432     	9259.7459     	12398   
1941 	1080.4749     	9255.1899     	11578   
1942 	1081.0065     	9250.6384     	10777   
1943 	1081.5381     	9246.0914     	10378   
1944 	1082.0698     	9241.5478     	10041   
1945 	1082.6016     	9237.0087     	9238    
1946 	1083.1333     	9232.4740     	8726    
1947 	1083.6652     	9227.9427     	8459    
1948 	1084.1970     	9223.4159     	8199    
1949 	1084.7290     	9218.8924     	7728    
1950 	1085.2609     	9214.3745     	7654    
1951 	1085.7928     	9209.8599     	7309    
1952 	1086.3250     	9205.3487     	7077    
1953 	1086.8569     	9200.8430     	6883    
1954 	1087.3890     	9196.3406     	6656    
1955 	1087.9211     	9191.8427     	6384    
1956 	1088.4534     	9187.3481     	6416    
1957 	1088.9856     	9182.8579     	6204    
1958 	1089.5178     	9178.3721     	5836    
1959 	1090.0500     	9173.8907     	5900    
1960 	1090.5824     	9169.4126     	5717    
1961 	1091.1147     	9164.9389     	5893    
1962 	1091.6472     	9160.4686     	5885    
1963 	1092.1797     	9156.0025     	6035    
1964 	1092.7122     	9151.5409     	6037    
1965 	1093.2446     	9147.0836     	6023    
1966 	1093.7772     	9142.6296     	6338    
1967 	1094.3098     	9138.1799     	6568    
1968 	1094.8424     	9133.7346     	6787    
1969 	1095.3751     	9129.2926     	7156    
1970 	1095.9078     	9124.8549     	7368    
1971 	1096.4406     	9120.4215     	7422    
1972 	1096.9734     	9115.9914     	7564    
1973 	1097.5061     	9111.5666     	7576    
1974 	1098.0391     	9107.1441     	7531    
1975 	1098.5719     	9102.7269     	7557    
1976 	1099.1049     	9098.3130     	7411    
1977 	1099.6378     	9093.9033     	7390    
1978 	1100.1709     	9089.4969     	7441    
1979 	1100.7039     	9085.0958     	7393    
1980 	1101.2369     	9080.6979     	7090    
1981 	1101.7701     	9076.3033     	6843    
1982 	1102.3032     	9071.9140     	6557    
1983 	1102.8364     	9067.5278     	6006    
1984 	1103.3698     	9063.1450     	5620    
1985 	1103.9030     	9058.7673     	5127    
1986 	1104.4363     	9054.3929     	4846    
1987 	1104.9697     	9050.0217     	4592    
1988 	1105.5031     	9045.6557     	4382    
1989 	1106.0365     	9041.2929     	4288    
1990 	1106.5699     	9036.9344     	4160    
1991 	1107.1035     	9032.5790     	4027    
1992 	1107.6371     	9028.2279     	3984    
1993 	1108.1707     	9023.8809     	3816    
1994 	1108.7042     	9019.5381     	3827    
1995 	1109.2379     	9015.1985     	3747    
1996 	1109.7716     	9010.8631     	3792    
1997 	1110.3053     	9006.5318     	3641    
1998 	1110.8391     	9002.2037     	3778    
1999 	1111.3729     	8997.8798     	3713    
2000 	1111.9067     	8993.5600     	3694    
2001 	1112.4407     	8989.2434     	3668    
2002 	1112.9746     	8984.9309     	3587    
2003 	1113.5085     	8980.6226     	3538    
2004 	1114.0426     	8976.3174     	3556    
2005 	1114.5767     	8972.0163     	3520    
2006 	1115.1107     	8967.7194     	3499    
2007 	1115.6448     	8963.4265     	3476    
2008 	1116.1790     	8959.1368     	3521    
2009 	1116.7131     	8954.8512     	3462    
2010 	1117.2473     	8950.5697     	3436    
2011 	1117.7816     	8946.2913     	3350    
2012 	1118.3159     	8942.0170     	3408    
2013 	1118.8503     	8937.7459     	3388    
2014 	1119.3846     	8933.4797     	3399    
2015 	1119.9191     	8929.2167     	3403    
2016 	1120.4535     	8924.9577     	3458    
2017 	1120.9880     	8920.7018     	3340    
2018 	1121.5226     	8916.4500     	3296    
2019 	1122.0571     	8912.2022     	3310    
2020 	1122.5918     	8907.9575     	3348    
2021 	1123.1263     	8903.7178     	3358    
2022 	1123.6610     	8899.4812     	3367    
2023 	1124.1958     	8895.2476     	3321    
2024 	1124.7306     	8891.0181     	3313    
2025 	1125.2654     	8886.7925     	3276    
2026 	1125.8002     	8882.5710     	3305    
2027 	1126.3351     	8878.3526     	3308    
2028 	1126.8700     	8874.1381     	3314    
2029 	1127.4049     	8869.9277     	3318    
2030 	1127.9399     	8865.7203     	3238    
2031 	1128.4749     	8861.5178     	3228    
2032 	1129.0100     	8857.3174     	3206    
2033 	1129.5450     	8853.1219     	3240    
2034 	1130.0802     	8848.9295     	3220    
2035 	1130.6154     	8844.7410     	3242    
2036 	1131.1506     	8840.5555     	3249    
2037 	1131.6858     	8836.3750     	3170    
2038 	1132.2211     	8832.1974     	3178    
2039 	1132.7565     	8828.0229     	3177    
2040 	1133.2917     	8823.8532     	3204    
2041 	1133.8271     	8819.6865     	3229    
2042 	1134.3627     	8815.5228     	3210    
2043 	1134.8981     	8811.3640     	3164    
2044 	1135.4336     	8807.2081     	3160    
2045 	1135.9691     	8803.0562     	3180    
2046 	1136.5048     	8798.9073     	3149    
2047 	1137.0404     	8794.7622     	3209    
2048 	1137.5760     	8790.6211     	3183    
