Pixel	Wavelength(nm)	Wavenumber(1/cm)	Intensity(Counts)
1    	132.6255      	75400.2706    	2729    
2    	133.0654      	75151.0337    	2808    
3    	133.5053      	74903.4048    	2832    
4    	133.9452      	74657.3770    	2745    
5    	134.3853      	74412.9263    	2833    
6    	134.8253      	74170.0377    	2829    
7    	135.2655      	73928.7044    	2738    
8    	135.7056      	73688.9034    	2760    
9    	136.1459      	73450.6202    	2795    
10   	136.5862      	73213.8484    	2754    
11   	137.0265      	72978.5658    	2806    
12   	137.4669      	72744.7582    	2863    
13   	137.9074      	72512.4119    	2872    
14   	138.3479      	72281.5212    	2784    
15   	138.7885      	72052.0724    	2841    
16   	139.2292      	71824.0364    	2739    
17   	139.6698      	71597.4157    	2781    
18   	140.1106      	71372.1896    	2876    
19   	140.5514      	71148.3528    	2816    
20   	140.9922      	70925.8850    	2766    
21   	141.4332      	70704.7735    	2837    
22   	141.8741      	70485.0060    	2779    
23   	142.3152      	70266.5779    	2820    
24   	142.7562      	70049.4769    	2819    
25   	143.1974      	69833.6762    	2872    
26   	143.6386      	69619.1788    	2800    
27   	144.0798      	69405.9656    	2839    
28   	144.5211      	69194.0325    	2796    
29   	144.9625      	68983.3607    	2817    
30   	145.4039      	68773.9389    	2856    
31   	145.8454      	68565.7562    	2830    
32   	146.2869      	68358.8086    	2825    
33   	146.7285      	68153.0782    	2865    
34   	147.1702      	67948.5612    	2848    
35   	147.6118      	67745.2400    	2923    
36   	148.0536      	67543.1041    	2915    
37   	148.4954      	67342.1501    	2848    
38   	148.9373      	67142.3608    	2869    
39   	149.3792      	66943.7261    	2856    
40   	149.8212      	66746.2361    	2783    
41   	150.2632      	66549.8875    	2774    
42   	150.7053      	66354.6707    	2816    
43   	151.1474      	66160.5623    	2876    
44   	151.5896      	65967.5664    	2893    
45   	152.0319      	65775.6734    	2788    
46   	152.4742      	65584.8607    	2871    
47   	152.9166      	65395.1323    	2912    
48   	153.3590      	65206.4791    	2859    
49   	153.8015      	65018.8788    	2835    
50   	154.2440      	64832.3358    	2738    
51   	154.6866      	64646.8409    	2844    
52   	155.1293      	64462.3727    	2851    
53   	155.5719      	64278.9417    	2830    
54   	156.0147      	64096.5203    	2816    
55   	156.4575      	63915.1127    	2801    
56   	156.9004      	63734.7043    	2937    
57   	157.3433      	63555.2868    	2804    
58   	157.7863      	63376.8582    	2830    
59   	158.2293      	63199.4043    	2846    
60   	158.6724      	63022.9231    	2798    
61   	159.1156      	62847.4008    	2760    
62   	159.5588      	62672.8294    	2851    
63   	160.0020      	62499.2073    	2805    
64   	160.4453      	62326.5207    	2855    
65   	160.8887      	62154.7623    	2759    
66   	161.3321      	61983.9303    	2820    
67   	161.7756      	61814.0115    	2832    
68   	162.2192      	61644.9985    	2836    
69   	162.6628      	61476.8900    	2837    
70   	163.1064      	61309.6729    	2866    
71   	163.5501      	61143.3459    	2846    
72   	163.9939      	60977.8905    	2872    
73   	164.4377      	60813.3169    	2785    
74   	164.8815      	60649.6011    	2849    
75   	165.3255      	60486.7478    	2820    
76   	165.7695      	60324.7444    	2816    
77   	166.2135      	60163.5900    	2802    
78   	166.6576      	60003.2723    	2793    
79   	167.1017      	59843.7849    	2785    
80   	167.5459      	59685.1267    	2815    
81   	167.9902      	59527.2860    	2862    
82   	168.4345      	59370.2618    	2830    
83   	168.8789      	59214.0424    	2832    
84   	169.3233      	59058.6216    	2784    
85   	169.7678      	58903.9935    	2770    
86   	170.2123      	58750.1571    	2792    
87   	170.6569      	58597.1064    	2733    
88   	171.1015      	58444.8251    	2806    
89   	171.5462      	58293.3176    	2813    
90   	171.9910      	58142.5781    	2816    
91   	172.4358      	57992.5957    	2814    
92   	172.8807      	57843.3647    	2835    
93   	173.3256      	57694.8793    	2824    
94   	173.7706      	57547.1392    	2807    
95   	174.2156      	57400.1337    	2883    
96   	174.6607      	57253.8624    	2872    
97   	175.1059      	57108.3147    	2802    
98   	175.5510      	56963.4903    	2905    
99   	175.9963      	56819.3739    	2824    
100  	176.4416      	56675.9752    	2825    
101  	176.8870      	56533.2740    	2846    
102  	177.3324      	56391.2750    	2872    
103  	177.7779      	56249.9683    	2849    
104  	178.2234      	56109.3537    	2786    
105  	178.6690      	55969.4211    	2887    
106  	179.1146      	55830.1705    	2821    
107  	179.5603      	55691.5874    	2759    
108  	180.0061      	55553.6812    	2825    
109  	180.4519      	55416.4329    	2824    
110  	180.8978      	55279.8471    	2832    
111  	181.3437      	55143.9189    	2848    
112  	181.7896      	55008.6345    	2832    
113  	182.2357      	54873.9985    	2857    
114  	182.6817      	54740.0063    	2808    
115  	183.1279      	54606.6486    	2813    
116  	183.5741      	54473.9210    	2793    
117  	184.0203      	54341.8235    	2840    
118  	184.4666      	54210.3472    	2821    
119  	184.9130      	54079.4877    	2824    
120  	185.3594      	53949.2451    	2793    
121  	185.8059      	53819.6107    	2820    
122  	186.2524      	53690.5846    	2805    
123  	186.6990      	53562.1581    	2840    
124  	187.1456      	53434.3272    	2866    
125  	187.5923      	53307.0919    	2918    
126  	188.0390      	53180.4439    	2794    
127  	188.4858      	53054.3833    	2826    
128  	188.9327      	52928.9019    	2832    
129  	189.3796      	52803.9956    	2812    
130  	189.8266      	52679.6648    	2808    
131  	190.2736      	52555.9012    	2854    
132  	190.7207      	52432.7052    	2904    
133  	191.1678      	52310.0687    	2804    
134  	191.6150      	52187.9879    	2775    
135  	192.0622      	52066.4632    	2830    
136  	192.5095      	51945.4867    	2828    
137  	192.9568      	51825.0588    	2815    
138  	193.4043      	51705.1716    	2858    
139  	193.8517      	51585.8216    	2889    
140  	194.2992      	51467.0092    	2817    
141  	194.7468      	51348.7268    	2792    
142  	195.1944      	51230.9707    	2848    
143  	195.6421      	51113.7416    	2839    
144  	196.0898      	50997.0358    	2826    
145  	196.5376      	50880.8459    	2753    
146  	196.9855      	50765.1686    	2795    
147  	197.4334      	50650.0004    	2784    
148  	197.8813      	50535.3418    	2768    
149  	198.3293      	50421.1896    	2900    
150  	198.7774      	50307.5326    	2856    
151  	199.2255      	50194.3791    	2820    
152  	199.6737      	50081.7144    	2846    
153  	200.1219      	49969.5429    	2883    
154  	200.5702      	49857.8614    	2799    
155  	201.0185      	49746.6629    	2777    
156  	201.4669      	49635.9443    	2823    
157  	201.9153      	49525.7061    	2862    
158  	202.3638      	49415.9417    	2918    
159  	202.8124      	49306.6478    	2834    
160  	203.2610      	49197.8253    	2790    
161  	203.7097      	49089.4674    	2864    
162  	204.1584      	48981.5747    	2864    
163  	204.6072      	48874.1407    	2852    
164  	205.0560      	48767.1661    	2864    
165  	205.5049      	48660.6443    	2780    
166  	205.9538      	48554.5724    	2793    
167  	206.4028      	48448.9512    	2834    
168  	206.8519      	48343.7743    	2779    
169  	207.3010      	48239.0424    	2776    
170  	207.7501      	48134.7491    	2797    
171  	208.1993      	48030.8917    	2824    
172  	208.6486      	47927.4711    	2857    
173  	209.0979      	47824.4844    	2825    
174  	209.5473      	47721.9219    	2872    
175  	209.9967      	47619.7915    	2850    
176  	210.4462      	47518.0801    	2800    
177  	210.8958      	47416.7920    	2852    
178  	211.3453      	47315.9245    	2798    
179  	211.7950      	47215.4716    	2864    
180  	212.2447      	47115.4308    	2809    
181  	212.6944      	47015.8029    	2857    
182  	213.1443      	46916.5820    	2861    
183  	213.5941      	46817.7657    	2867    
184  	214.0441      	46719.3547    	2911    
185  	214.4940      	46621.3467    	2867    
186  	214.9440      	46523.7358    	2832    
187  	215.3941      	46426.5196    	2865    
188  	215.8443      	46329.6990    	2809    
189  	216.2945      	46233.2683    	2796    
190  	216.7447      	46137.2253    	2833    
191  	217.1950      	46041.5708    	2896    
192  	217.6454      	45946.3024    	2936    
193  	218.0958      	45851.4146    	2799    
194  	218.5462      	45756.9051    	2790    
195  	218.9968      	45662.7749    	2844    
196  	219.4473      	45569.0186    	2775    
197  	219.8980      	45475.6338    	2865    
198  	220.3487      	45382.6216    	2818    
199  	220.7994      	45289.9796    	2879    
200  	221.2502      	45197.7027    	2852    
201  	221.7010      	45105.7886    	2839    
202  	222.1519      	45014.2383    	2801    
203  	222.6029      	44923.0466    	2787    
204  	223.0539      	44832.2144    	2855    
205  	223.5050      	44741.7366    	2796    
206  	223.9561      	44651.6141    	2723    
207  	224.4072      	44561.8418    	2864    
208  	224.8585      	44472.4176    	2798    
209  	225.3098      	44383.3427    	2848    
210  	225.7611      	44294.6119    	2794    
211  	226.2125      	44206.2262    	2815    
212  	226.6639      	44118.1807    	2798    
213  	227.1154      	44030.4763    	2804    
214  	227.5670      	43943.1081    	2704    
215  	228.0186      	43856.0772    	2861    
216  	228.4702      	43769.3786    	2826    
217  	228.9220      	43683.0105    	2796    
218  	229.3737      	43596.9739    	2752    
219  	229.8255      	43511.2639    	2850    
220  	230.2774      	43425.8817    	2817    
221  	230.7294      	43340.8224    	2882    
222  	231.1813      	43256.0872    	2847    
223  	231.6334      	43171.6712    	2847    
224  	232.0855      	43087.5756    	2808    
225  	232.5376      	43003.7957    	2877    
226  	232.9898      	42920.3297    	2794    
227  	233.4421      	42837.1787    	2854    
228  	233.8944      	42754.3409    	2841    
229  	234.3468      	42671.8090    	2880    
230  	234.7992      	42589.5895    	2808    
231  	235.2516      	42507.6752    	2782    
232  	235.7042      	42426.0645    	2840    
233  	236.1568      	42344.7555    	2844    
234  	236.6094      	42263.7522    	2802    
235  	237.0621      	42183.0447    	2876    
236  	237.5148      	42102.6366    	2790    
237  	237.9676      	42022.5264    	2817    
238  	238.4205      	41942.7098    	2828    
239  	238.8734      	41863.1851    	2888    
240  	239.3263      	41783.9534    	2821    
241  	239.7793      	41705.0105    	2776    
242  	240.2324      	41626.3573    	2844    
243  	240.6855      	41547.9924    	2848    
244  	241.1387      	41469.9088    	2885    
245  	241.5919      	41392.1130    	2888    
246  	242.0452      	41314.5954    	2877    
247  	242.4986      	41237.3599    	2914    
248  	242.9519      	41160.4049    	2837    
249  	243.4054      	41083.7262    	2848    
250  	243.8589      	41007.3250    	2869    
251  	244.3124      	40931.1972    	2795    
252  	244.7660      	40855.3414    	2797    
253  	245.2197      	40779.7586    	2825    
254  	245.6734      	40704.4448    	2836    
255  	246.1272      	40629.4011    	2816    
256  	246.5810      	40554.6261    	2756    
257  	247.0349      	40480.1133    	2817    
258  	247.4888      	40405.8689    	2911    
259  	247.9428      	40331.8863    	2820    
260  	248.3968      	40258.1643    	2804    
261  	248.8509      	40184.7015    	2770    
262  	249.3051      	40111.5014    	2817    
263  	249.7593      	40038.5552    	2786    
264  	250.2135      	39965.8666    	2888    
265  	250.6678      	39893.4341    	2833    
266  	251.1222      	39821.2540    	2810    
267  	251.5766      	39749.3274    	2829    
268  	252.0311      	39677.6506    	2882    
269  	252.4856      	39606.2222    	2824    
270  	252.9402      	39535.0434    	2819    
271  	253.3948      	39464.1128    	2868    
272  	253.8495      	39393.4268    	2825    
273  	254.3042      	39322.9842    	2824    
274  	254.7590      	39252.7859    	2785    
275  	255.2138      	39182.8309    	2784    
276  	255.6687      	39113.1154    	2829    
277  	256.1237      	39043.6359    	2876    
278  	256.5787      	38974.4005    	2872    
279  	257.0337      	38905.4009    	2848    
280  	257.4889      	38836.6314    	2880    
281  	257.9440      	38768.1047    	2860    
282  	258.3992      	38699.8056    	2834    
283  	258.8545      	38631.7422    	2782    
284  	259.3098      	38563.9087    	2829    
285  	259.7652      	38496.3039    	2877    
286  	260.2206      	38428.9268    	2819    
287  	260.6761      	38361.7806    	2820    
288  	261.1317      	38294.8597    	2770    
289  	261.5872      	38228.1629    	2917    
290  	262.0429      	38161.6892    	2849    
291  	262.4986      	38095.4418    	2859    
292  	262.9544      	38029.4108    	2885    
293  	263.4102      	37963.6083    	2824    
294  	263.8660      	37898.0200    	2860    
295  	264.3220      	37832.6492    	2792    
296  	264.7779      	37767.4991    	2856    
297  	265.2339      	37702.5644    	2794    
298  	265.6900      	37637.8483    	2877    
299  	266.1461      	37573.3410    	2880    
300  	266.6023      	37509.0502    	2822    
301  	267.0586      	37444.9704    	2950    
302  	267.5148      	37381.1050    	2920    
303  	267.9712      	37317.4443    	2824    
304  	268.4276      	37253.9958    	2817    
305  	268.8840      	37190.7542    	2833    
306  	269.3405      	37127.7186    	2852    
307  	269.7971      	37064.8922    	2874    
308  	270.2537      	37002.2696    	2855    
309  	270.7104      	36939.8500    	2782    
310  	271.1671      	36877.6323    	2814    
311  	271.6238      	36815.6197    	2846    
312  	272.0807      	36753.8070    	2874    
313  	272.5375      	36692.1934    	2896    
314  	272.9945      	36630.7778    	2848    
315  	273.4514      	36569.5634    	2834    
316  	273.9085      	36508.5410    	2780    
317  	274.3656      	36447.7219    	2824    
318  	274.8227      	36387.0930    	2796    
319  	275.2799      	36326.6574    	2776    
320  	275.7372      	36266.4183    	2841    
321  	276.1945      	36206.3706    	2892    
322  	276.6518      	36146.5174    	2859    
323  	277.1093      	36086.8498    	2855    
324  	277.5667      	36027.3750    	2870    
325  	278.0242      	35968.0880    	2880    
326  	278.4818      	35908.9918    	2828    
327  	278.9394      	35850.0817    	2838    
328  	279.3971      	35791.3528    	2865    
329  	279.8548      	35732.8161    	2816    
330  	280.3126      	35674.4588    	2878    
331  	280.7704      	35616.2880    	2901    
332  	281.2283      	35558.2988    	2857    
333  	281.6862      	35500.4905    	2914    
334  	282.1443      	35442.8622    	2920    
335  	282.6023      	35385.4168    	2787    
336  	283.0604      	35328.1498    	2825    
337  	283.5186      	35271.0602    	2799    
338  	283.9767      	35214.1510    	2792    
339  	284.4350      	35157.4139    	2840    
340  	284.8933      	35100.8555    	2844    
341  	285.3517      	35044.4751    	2827    
342  	285.8101      	34988.2643    	2800    
343  	286.2686      	34932.2298    	2888    
344  	286.7271      	34876.3671    	2827    
345  	287.1857      	34820.6753    	2875    
346  	287.6443      	34765.1575    	2877    
347  	288.1030      	34709.8090    	2827    
348  	288.5617      	34654.6292    	2833    
349  	289.0205      	34599.6172    	2828    
350  	289.4794      	34544.7760    	2836    
351  	289.9383      	34490.1011    	2866    
352  	290.3972      	34435.5917    	2882    
353  	290.8562      	34381.2472    	2898    
354  	291.3153      	34327.0703    	2878    
355  	291.7744      	34273.0567    	2867    
356  	292.2336      	34219.2057    	2846    
357  	292.6927      	34165.5201    	2876    
358  	293.1520      	34111.9956    	2820    
359  	293.6113      	34058.6314    	2905    
360  	294.0707      	34005.4269    	2858    
361  	294.5302      	33952.3813    	2902    
362  	294.9896      	33899.4974    	2889    
363  	295.4492      	33846.7711    	2930    
364  	295.9087      	33794.2050    	2813    
365  	296.3684      	33741.7915    	2836    
366  	296.8281      	33689.5369    	2869    
367  	297.2878      	33637.4369    	2861    
368  	297.7476      	33585.4944    	2862    
369  	298.2075      	33533.7018    	2856    
370  	298.6674      	33482.0653    	2872    
371  	299.1273      	33430.5841    	2907    
372  	299.5873      	33379.2509    	2882    
373  	300.0474      	33328.0716    	2896    
374  	300.5075      	33277.0422    	2924    
375  	300.9677      	33226.1622    	2924    
376  	301.4279      	33175.4341    	2842    
377  	301.8881      	33124.8541    	2865    
378  	302.3484      	33074.4213    	2856    
379  	302.8088      	33024.1352    	2904    
380  	303.2693      	32973.9985    	2907    
381  	303.7297      	32924.0071    	2897    
382  	304.1903      	32874.1605    	2885    
383  	304.6508      	32824.4614    	2887    
384  	305.1115      	32774.9024    	2858    
385  	305.5722      	32725.4896    	2916    
386  	306.0329      	32676.2223    	2861    
387  	306.4937      	32627.0934    	2822    
388  	306.9546      	32578.1087    	2839    
389  	307.4155      	32529.2645    	2877    
390  	307.8764      	32480.5633    	2824    
391  	308.3375      	32431.9980    	2771    
392  	308.7985      	32383.5746    	2864    
393  	309.2596      	32335.2924    	2852    
394  	309.7208      	32287.1443    	2953    
395  	310.1820      	32239.1363    	2913    
396  	310.6433      	32191.2645    	2835    
397  	311.1046      	32143.5284    	2911    
398  	311.5660      	32095.9305    	2901    
399  	312.0274      	32048.4670    	2855    
400  	312.4889      	32001.1375    	2887    
401  	312.9504      	31953.9445    	2828    
402  	313.4120      	31906.8811    	2808    
403  	313.8737      	31859.9531    	2855    
404  	314.3353      	31813.1598    	2872    
405  	314.7971      	31766.4945    	2836    
406  	315.2589      	31719.9629    	2842    
407  	315.7207      	31673.5613    	2915    
408  	316.1826      	31627.2921    	2864    
409  	316.6446      	31581.1488    	2920    
410  	317.1066      	31535.1370    	2898    
411  	317.5686      	31489.2560    	2848    
412  	318.0308      	31443.4992    	2768    
413  	318.4929      	31397.8722    	2862    
414  	318.9551      	31352.3715    	2848    
415  	319.4174      	31306.9964    	2936    
416  	319.8797      	31261.7495    	2849    
417  	320.3421      	31216.6273    	2912    
418  	320.8045      	31171.6292    	2816    
419  	321.2670      	31126.7577    	2846    
420  	321.7295      	31082.0092    	2920    
421  	322.1921      	31037.3834    	2929    
422  	322.6548      	30992.8797    	2823    
423  	323.1174      	30948.5005    	2860    
424  	323.5802      	30904.2424    	2836    
425  	324.0430      	30860.1049    	2892    
426  	324.5058      	30816.0903    	2834    
427  	324.9687      	30772.1925    	2933    
428  	325.4317      	30728.4167    	2897    
429  	325.8947      	30684.7624    	2848    
430  	326.3577      	30641.2262    	2838    
431  	326.8208      	30597.8077    	2878    
432  	327.2840      	30554.5063    	2873    
433  	327.7472      	30511.3216    	2844    
434  	328.2104      	30468.2560    	2888    
435  	328.6738      	30425.3062    	2856    
436  	329.1371      	30382.4744    	2834    
437  	329.6006      	30339.7547    	2854    
438  	330.0640      	30297.1521    	2856    
439  	330.5275      	30254.6662    	2865    
440  	330.9911      	30212.2909    	2929    
441  	331.4547      	30170.0314    	2837    
442  	331.9184      	30127.8844    	2867    
443  	332.3821      	30085.8523    	2840    
444  	332.8459      	30043.9290    	2874    
445  	333.3098      	30002.1196    	2879    
446  	333.7737      	29960.4237    	2857    
447  	334.2376      	29918.8353    	2856    
448  	334.7016      	29877.3595    	2871    
449  	335.1656      	29835.9931    	2924    
450  	335.6297      	29794.7384    	2888    
451  	336.0939      	29753.5922    	2896    
452  	336.5581      	29712.5541    	2835    
453  	337.0223      	29671.6236    	2868    
454  	337.4866      	29630.8032    	2915    
455  	337.9510      	29590.0895    	2946    
456  	338.4154      	29549.4822    	2888    
457  	338.8799      	29508.9836    	2828    
458  	339.3444      	29468.5879    	2974    
459  	339.8089      	29428.3026    	2836    
460  	340.2736      	29388.1194    	2818    
461  	340.7382      	29348.0432    	2839    
462  	341.2029      	29308.0709    	2856    
463  	341.6677      	29268.2021    	2863    
464  	342.1325      	29228.4390    	2904    
465  	342.5974      	29188.7786    	2864    
466  	343.0623      	29149.2205    	2808    
467  	343.5273      	29109.7643    	2840    
468  	343.9924      	29070.4122    	2867    
469  	344.4575      	29031.1612    	2818    
470  	344.9226      	28992.0135    	2904    
471  	345.3878      	28952.9635    	2928    
472  	345.8530      	28914.0161    	2902    
473  	346.3183      	28875.1708    	2820    
474  	346.7837      	28836.4220    	2848    
475  	347.2491      	28797.7746    	2848    
476  	347.7145      	28759.2257    	2852    
477  	348.1800      	28720.7772    	2811    
478  	348.6455      	28682.4264    	2925    
479  	349.1111      	28644.1729    	2864    
480  	349.5768      	28606.0163    	2839    
481  	350.0425      	28567.9587    	2876    
482  	350.5083      	28529.9973    	2851    
483  	350.9741      	28492.1317    	2856    
484  	351.4399      	28454.3640    	2824    
485  	351.9059      	28416.6913    	2917    
486  	352.3718      	28379.1134    	2916    
487  	352.8378      	28341.6322    	2861    
488  	353.3039      	28304.2451    	2908    
489  	353.7700      	28266.9515    	2902    
490  	354.2362      	28229.7513    	2873    
491  	354.7024      	28192.6464    	2887    
492  	355.1687      	28155.6341    	2849    
493  	355.6350      	28118.7165    	2841    
494  	356.1014      	28081.8883    	2912    
495  	356.5678      	28045.1540    	2881    
496  	357.0343      	28008.5133    	2872    
497  	357.5009      	27971.9611    	2849    
498  	357.9674      	27935.5018    	2889    
499  	358.4341      	27899.1326    	2872    
500  	358.9008      	27862.8557    	2832    
501  	359.3675      	27826.6683    	2896    
502  	359.8343      	27790.5700    	2844    
503  	360.3011      	27754.5605    	2842    
504  	360.7680      	27718.6419    	2838    
505  	361.2350      	27682.8115    	2870    
506  	361.7020      	27647.0712    	2834    
507  	362.1690      	27611.4162    	2871    
508  	362.6361      	27575.8506    	2848    
509  	363.1033      	27540.3743    	2890    
510  	363.5705      	27504.9822    	2873    
511  	364.0378      	27469.6786    	2909    
512  	364.5051      	27434.4610    	2889    
513  	364.9724      	27399.3312    	2860    
514  	365.4398      	27364.2867    	2948    
515  	365.9073      	27329.3272    	2928    
516  	366.3748      	27294.4547    	2881    
517  	366.8424      	27259.6642    	2793    
518  	367.3100      	27224.9623    	2902    
519  	367.7776      	27190.3419    	2824    
520  	368.2454      	27155.8071    	2953    
521  	368.7131      	27121.3555    	2939    
522  	369.1810      	27086.9867    	2928    
523  	369.6488      	27052.7027    	2837    
524  	370.1168      	27018.5008    	2873    
525  	370.5847      	26984.3810    	2908    
526  	371.0528      	26950.3449    	2832    
527  	371.5208      	26916.3902    	2906    
528  	371.9890      	26882.5166    	2896    
529  	372.4572      	26848.7258    	2873    
530  	372.9254      	26815.0156    	2830    
531  	373.3937      	26781.3855    	2917    
532  	373.8620      	26747.8375    	2884    
533  	374.3304      	26714.3669    	2828    
534  	374.7988      	26680.9799    	2900    
535  	375.2673      	26647.6698    	2887    
536  	375.7359      	26614.4406    	2880    
537  	376.2045      	26581.2898    	2824    
538  	376.6731      	26548.2194    	2852    
539  	377.1418      	26515.2248    	2780    
540  	377.6105      	26482.3120    	2872    
541  	378.0793      	26449.4745    	2795    
542  	378.5482      	26416.7161    	2844    
543  	379.0171      	26384.0346    	2829    
544  	379.4861      	26351.4295    	2835    
545  	379.9550      	26318.9029    	2840    
546  	380.4241      	26286.4522    	2904    
547  	380.8932      	26254.0773    	2872    
548  	381.3624      	26221.7799    	2890    
549  	381.8316      	26189.5576    	2928    
550  	382.3008      	26157.4103    	2918    
551  	382.7701      	26125.3398    	2926    
552  	383.2395      	26093.3436    	2839    
553  	383.7089      	26061.4215    	2807    
554  	384.1784      	26029.5754    	2854    
555  	384.6479      	25997.8029    	2838    
556  	385.1175      	25966.1038    	2778    
557  	385.5871      	25934.4798    	2854    
558  	386.0567      	25902.9287    	2876    
559  	386.5265      	25871.4501    	2886    
560  	386.9962      	25840.0439    	2862    
561  	387.4661      	25808.7118    	2891    
562  	387.9359      	25777.4536    	2893    
563  	388.4059      	25746.2649    	2860    
564  	388.8758      	25715.1496    	2898    
565  	389.3459      	25684.1054    	2849    
566  	389.8159      	25653.1341    	2884    
567  	390.2860      	25622.2333    	2844    
568  	390.7562      	25591.4029    	2828    
569  	391.2265      	25560.6426    	2824    
570  	391.6967      	25529.9542    	2810    
571  	392.1671      	25499.3374    	2852    
572  	392.6375      	25468.7880    	2840    
573  	393.1079      	25438.3097    	2891    
574  	393.5784      	25407.9004    	2908    
575  	394.0489      	25377.5617    	2865    
576  	394.5195      	25347.2895    	2916    
577  	394.9901      	25317.0894    	2842    
578  	395.4608      	25286.9554    	2912    
579  	395.9315      	25256.8911    	2857    
580  	396.4023      	25226.8942    	2873    
581  	396.8732      	25196.9666    	2832    
582  	397.3441      	25167.1042    	2840    
583  	397.8150      	25137.3124    	2914    
584  	398.2860      	25107.5853    	2852    
585  	398.7570      	25077.9265    	2880    
586  	399.2281      	25048.3339    	2853    
587  	399.6993      	25018.8092    	2794    
588  	400.1705      	24989.3482    	2839    
589  	400.6417      	24959.9565    	2864    
590  	401.1130      	24930.6282    	2910    
591  	401.5844      	24901.3669    	2921    
592  	402.0558      	24872.1703    	2948    
593  	402.5272      	24843.0403    	2907    
594  	402.9987      	24813.9747    	2854    
595  	403.4703      	24784.9733    	2909    
596  	403.9419      	24756.0358    	2912    
597  	404.4135      	24727.1640    	2811    
598  	404.8853      	24698.3557    	2827    
599  	405.3570      	24669.6125    	2916    
600  	405.8288      	24640.9326    	2838    
601  	406.3007      	24612.3155    	2857    
602  	406.7726      	24583.7611    	2900    
603  	407.2445      	24555.2711    	2904    
604  	407.7165      	24526.8451    	2876    
605  	408.1886      	24498.4795    	2796    
606  	408.6607      	24470.1775    	2961    
607  	409.1329      	24441.9372    	2920    
608  	409.6051      	24413.7602    	2884    
609  	410.0773      	24385.6444    	2928    
610  	410.5497      	24357.5898    	2872    
611  	411.0220      	24329.5977    	2821    
612  	411.4944      	24301.6664    	2841    
613  	411.9669      	24273.7955    	2913    
614  	412.4394      	24245.9867    	2863    
615  	412.9120      	24218.2379    	2875    
616  	413.3846      	24190.5490    	2907    
617  	413.8572      	24162.9216    	2920    
618  	414.3300      	24135.3536    	2845    
619  	414.8027      	24107.8449    	2856    
620  	415.2755      	24080.3971    	2960    
621  	415.7484      	24053.0082    	2869    
622  	416.2213      	24025.6780    	2873    
623  	416.6943      	23998.4081    	2816    
624  	417.1673      	23971.1965    	2855    
625  	417.6404      	23944.0431    	2921    
626  	418.1135      	23916.9493    	2853    
627  	418.5867      	23889.9133    	2888    
628  	419.0599      	23862.9367    	2912    
629  	419.5332      	23836.0174    	2886    
630  	420.0065      	23809.1553    	2829    
631  	420.4799      	23782.3503    	2828    
632  	420.9533      	23755.6038    	2780    
633  	421.4268      	23728.9140    	2838    
634  	421.9003      	23702.2823    	2862    
635  	422.3739      	23675.7070    	2931    
636  	422.8475      	23649.1877    	2877    
637  	423.3212      	23622.7261    	2806    
638  	423.7949      	23596.3203    	2808    
639  	424.2687      	23569.9700    	2826    
640  	424.7425      	23543.6769    	2884    
641  	425.2164      	23517.4389    	2876    
642  	425.6903      	23491.2560    	2921    
643  	426.1643      	23465.1297    	2954    
644  	426.6383      	23439.0580    	2896    
645  	427.1124      	23413.0409    	2909    
646  	427.5865      	23387.0798    	2889    
647  	428.0607      	23361.1729    	2842    
648  	428.5349      	23335.3200    	2864    
649  	429.0092      	23309.5225    	2817    
650  	429.4836      	23283.7788    	2900    
651  	429.9579      	23258.0902    	2820    
652  	430.4323      	23232.4549    	2872    
653  	430.9068      	23206.8728    	2814    
654  	431.3813      	23181.3454    	2896    
655  	431.8559      	23155.8707    	2863    
656  	432.3306      	23130.4487    	2817    
657  	432.8053      	23105.0792    	2942    
658  	433.2800      	23079.7637    	2832    
659  	433.7548      	23054.5020    	2795    
660  	434.2296      	23029.2923    	2873    
661  	434.7045      	23004.1344    	2875    
662  	435.1794      	22979.0282    	2855    
663  	435.6544      	22953.9751    	2865    
664  	436.1294      	22928.9734    	2894    
665  	436.6045      	22904.0245    	2871    
666  	437.0797      	22879.1251    	2803    
667  	437.5548      	22854.2797    	2827    
668  	438.0301      	22829.4834    	2852    
669  	438.5053      	22804.7394    	2855    
670  	438.9807      	22780.0457    	2901    
671  	439.4561      	22755.4039    	2929    
672  	439.9315      	22730.8121    	2836    
673  	440.4070      	22706.2703    	2755    
674  	440.8825      	22681.7799    	2809    
675  	441.3581      	22657.3391    	2868    
676  	441.8337      	22632.9494    	2868    
677  	442.3094      	22608.6090    	2865    
678  	442.7851      	22584.3178    	2959    
679  	443.2609      	22560.0756    	2872    
680  	443.7368      	22535.8839    	2886    
681  	444.2126      	22511.7409    	2840    
682  	444.6886      	22487.6480    	2857    
683  	445.1646      	22463.6036    	2836    
684  	445.6406      	22439.6074    	2894    
685  	446.1167      	22415.6610    	2842    
686  	446.5928      	22391.7625    	2866    
687  	447.0690      	22367.9134    	2885    
688  	447.5452      	22344.1105    	2897    
689  	448.0215      	22320.3582    	2904    
690  	448.4978      	22296.6518    	2856    
691  	448.9742      	22272.9941    	2880    
692  	449.4507      	22249.3836    	2944    
693  	449.9271      	22225.8216    	2822    
694  	450.4037      	22202.3065    	2892    
695  	450.8802      	22178.8380    	2940    
696  	451.3569      	22155.4176    	2877    
697  	451.8336      	22132.0436    	2892    
698  	452.3103      	22108.7174    	2855    
699  	452.7870      	22085.4374    	2891    
700  	453.2639      	22062.2033    	2860    
701  	453.7408      	22039.0151    	2915    
702  	454.2177      	22015.8742    	2920    
703  	454.6947      	21992.7803    	2914    
704  	455.1717      	21969.7303    	2868    
705  	455.6488      	21946.7272    	2929    
706  	456.1259      	21923.7707    	2888    
707  	456.6031      	21900.8593    	2894    
708  	457.0803      	21877.9928    	2891    
709  	457.5576      	21855.1711    	2876    
710  	458.0349      	21832.3955    	2912    
711  	458.5123      	21809.6644    	2860    
712  	458.9897      	21786.9791    	2937    
713  	459.4672      	21764.3381    	2983    
714  	459.9447      	21741.7426    	2851    
715  	460.4223      	21719.1897    	2873    
716  	460.9000      	21696.6821    	2912    
717  	461.3776      	21674.2197    	2925    
718  	461.8553      	21651.8009    	2909    
719  	462.3331      	21629.4255    	2851    
720  	462.8109      	21607.0949    	2839    
721  	463.2888      	21584.8076    	2842    
722  	463.7668      	21562.5633    	2825    
723  	464.2447      	21540.3634    	2877    
724  	464.7227      	21518.2064    	2940    
725  	465.2008      	21496.0935    	2920    
726  	465.6790      	21474.0217    	2937    
727  	466.1571      	21451.9953    	2921    
728  	466.6353      	21430.0097    	2842    
729  	467.1136      	21408.0678    	2903    
730  	467.5919      	21386.1694    	2856    
731  	468.0703      	21364.3130    	2860    
732  	468.5487      	21342.4984    	2874    
733  	469.0272      	21320.7255    	2913    
734  	469.5057      	21298.9956    	2874    
735  	469.9843      	21277.3072    	2896    
736  	470.4629      	21255.6616    	2842    
737  	470.9416      	21234.0572    	2869    
738  	471.4203      	21212.4953    	2789    
739  	471.8990      	21190.9730    	2834    
740  	472.3779      	21169.4930    	2877    
741  	472.8567      	21148.0552    	2902    
742  	473.3356      	21126.6580    	2870    
743  	473.8146      	21105.3013    	2882    
744  	474.2936      	21083.9864    	2930    
745  	474.7727      	21062.7118    	2892    
746  	475.2518      	21041.4787    	2855    
747  	475.7310      	21020.2844    	2929    
748  	476.2101      	20999.1327    	2865    
749  	476.6894      	20978.0195    	2848    
750  	477.1687      	20956.9474    	2805    
751  	477.6481      	20935.9162    	2864    
752  	478.1275      	20914.9232    	2873    
753  	478.6069      	20893.9723    	2895    
754  	479.0865      	20873.0593    	2901    
755  	479.5660      	20852.1868    	2840    
756  	480.0456      	20831.3533    	2906    
757  	480.5253      	20810.5601    	2883    
758  	481.0050      	20789.8058    	2865    
759  	481.4847      	20769.0915    	2948    
760  	481.9645      	20748.4145    	2826    
761  	482.4444      	20727.7786    	2912    
762  	482.9243      	20707.1798    	2896    
763  	483.4042      	20686.6206    	2857    
764  	483.8842      	20666.1008    	2849    
765  	484.3643      	20645.6179    	2896    
766  	484.8444      	20625.1755    	2855    
767  	485.3245      	20604.7696    	2903    
768  	485.8047      	20584.4028    	2909    
769  	486.2850      	20564.0736    	2878    
770  	486.7653      	20543.7833    	2862    
771  	487.2456      	20523.5304    	2920    
772  	487.7260      	20503.3161    	2855    
773  	488.2064      	20483.1390    	2824    
774  	488.6869      	20462.9991    	2890    
775  	489.1674      	20442.8974    	2905    
776  	489.6480      	20422.8327    	2948    
777  	490.1287      	20402.8047    	2888    
778  	490.6094      	20382.8147    	2860    
779  	491.0901      	20362.8614    	2893    
780  	491.5709      	20342.9458    	2860    
781  	492.0517      	20323.0666    	2904    
782  	492.5326      	20303.2236    	2937    
783  	493.0135      	20283.4182    	2881    
784  	493.4945      	20263.6488    	2920    
785  	493.9756      	20243.9167    	2903    
786  	494.4566      	20224.2205    	2863    
787  	494.9378      	20204.5601    	2900    
788  	495.4189      	20184.9366    	2933    
789  	495.9002      	20165.3487    	2837    
790  	496.3814      	20145.7976    	2951    
791  	496.8628      	20126.2819    	2805    
792  	497.3441      	20106.8014    	2888    
793  	497.8256      	20087.3574    	2930    
794  	498.3070      	20067.9486    	2900    
795  	498.7885      	20048.5759    	2892    
796  	499.2701      	20029.2382    	2837    
797  	499.7517      	20009.9354    	2910    
798  	500.2334      	19990.6684    	2881    
799  	500.7151      	19971.4361    	2905    
800  	501.1969      	19952.2384    	2896    
801  	501.6787      	19933.0763    	2774    
802  	502.1606      	19913.9497    	2845    
803  	502.6425      	19894.8562    	2900    
804  	503.1245      	19875.7981    	2874    
805  	503.6064      	19856.7753    	2844    
806  	504.0885      	19837.7864    	2908    
807  	504.5706      	19818.8314    	2902    
808  	505.0528      	19799.9114    	2876    
809  	505.5350      	19781.0251    	2855    
810  	506.0172      	19762.1736    	2816    
811  	506.4995      	19743.3545    	2843    
812  	506.9819      	19724.5711    	2862    
813  	507.4643      	19705.8211    	2826    
814  	507.9467      	19687.1043    	2825    
815  	508.4292      	19668.4207    	2827    
816  	508.9118      	19649.7714    	2911    
817  	509.3943      	19631.1562    	2888    
818  	509.8770      	19612.5727    	2882    
819  	510.3597      	19594.0232    	2872    
820  	510.8424      	19575.5076    	2888    
821  	511.3252      	19557.0246    	2922    
822  	511.8081      	19538.5741    	2908    
823  	512.2910      	19520.1573    	2960    
824  	512.7739      	19501.7740    	2891    
825  	513.2569      	19483.4206    	2856    
826  	513.7399      	19465.1018    	2904    
827  	514.2230      	19446.8173    	2914    
828  	514.7061      	19428.5626    	2887    
829  	515.1893      	19410.3421    	2872    
830  	515.6725      	19392.1512    	2857    
831  	516.1558      	19373.9944    	2864    
832  	516.6391      	19355.8715    	2907    
833  	517.1225      	19337.7779    	2855    
834  	517.6059      	19319.7181    	2924    
835  	518.0894      	19301.6897    	2857    
836  	518.5729      	19283.6927    	2888    
837  	519.0565      	19265.7270    	2911    
838  	519.5401      	19247.7924    	2851    
839  	520.0237      	19229.8912    	2864    
840  	520.5074      	19212.0210    	2888    
841  	520.9912      	19194.1818    	2829    
842  	521.4750      	19176.3734    	2791    
843  	521.9589      	19158.5980    	2836    
844  	522.4428      	19140.8510    	2889    
845  	522.9268      	19123.1369    	2888    
846  	523.4108      	19105.4534    	2937    
847  	523.8948      	19087.8003    	2864    
848  	524.3789      	19070.1798    	2858    
849  	524.8630      	19052.5895    	2813    
850  	525.3472      	19035.0295    	2824    
851  	525.8315      	19017.4996    	2808    
852  	526.3158      	18999.9998    	2903    
853  	526.8001      	18982.5321    	2894    
854  	527.2845      	18965.0921    	2806    
855  	527.7690      	18947.6842    	2848    
856  	528.2535      	18930.3060    	2882    
857  	528.7380      	18912.9596    	2892    
858  	529.2226      	18895.6407    	2859    
859  	529.7072      	18878.3534    	2880    
860  	530.1919      	18861.0956    	2828    
861  	530.6766      	18843.8671    	2856    
862  	531.1614      	18826.6701    	2874    
863  	531.6462      	18809.5001    	2921    
864  	532.1311      	18792.3614    	2900    
865  	532.6160      	18775.2517    	2869    
866  	533.1010      	18758.1711    	2962    
867  	533.5860      	18741.1214    	2868    
868  	534.0711      	18724.0985    	2793    
869  	534.5562      	18707.1065    	2817    
870  	535.0414      	18690.1431    	2802    
871  	535.5266      	18673.2105    	2848    
872  	536.0118      	18656.3043    	2871    
873  	536.4971      	18639.4286    	2856    
874  	536.9825      	18622.5814    	2932    
875  	537.4679      	18605.7625    	2946    
876  	537.9534      	18588.9718    	2888    
877  	538.4388      	18572.2114    	2868    
878  	538.9244      	18555.4770    	2896    
879  	539.4100      	18538.7727    	2874    
880  	539.8956      	18522.0984    	2746    
881  	540.3813      	18505.4500    	2864    
882  	540.8671      	18488.8314    	2916    
883  	541.3529      	18472.2385    	2872    
884  	541.8387      	18455.6754    	2866    
885  	542.3246      	18439.1419    	2856    
886  	542.8105      	18422.6339    	2872    
887  	543.2965      	18406.1555    	2858    
888  	543.7825      	18389.7044    	2860    
889  	544.2686      	18373.2806    	2853    
890  	544.7548      	18356.8841    	2840    
891  	545.2409      	18340.5168    	2820    
892  	545.7272      	18324.1746    	2896    
893  	546.2134      	18307.8615    	2811    
894  	546.6998      	18291.5753    	2880    
895  	547.1861      	18275.3182    	2956    
896  	547.6725      	18259.0858    	2865    
897  	548.1590      	18242.8822    	2920    
898  	548.6455      	18226.7053    	2847    
899  	549.1321      	18210.5551    	2908    
900  	549.6187      	18194.4335    	2912    
901  	550.1053      	18178.3363    	2881    
902  	550.5920      	18162.2676    	2864    
903  	551.0788      	18146.2253    	2877    
904  	551.5656      	18130.2093    	2841    
905  	552.0524      	18114.2215    	2865    
906  	552.5393      	18098.2599    	2880    
907  	553.0262      	18082.3245    	2924    
908  	553.5132      	18066.4150    	2822    
909  	554.0003      	18050.5316    	2902    
910  	554.4874      	18034.6760    	2893    
911  	554.9745      	18018.8443    	2872    
912  	555.4617      	18003.0404    	2852    
913  	555.9489      	17987.2642    	2938    
914  	556.4362      	17971.5117    	2905    
915  	556.9235      	17955.7867    	2857    
916  	557.4109      	17940.0873    	2801    
917  	557.8983      	17924.4133    	2912    
918  	558.3858      	17908.7648    	2814    
919  	558.8733      	17893.1435    	2865    
920  	559.3609      	17877.5456    	2915    
921  	559.8485      	17861.9748    	2973    
922  	560.3362      	17846.4292    	2922    
923  	560.8239      	17830.9106    	2881    
924  	561.3116      	17815.4152    	2893    
925  	561.7994      	17799.9466    	2913    
926  	562.2873      	17784.5029    	2901    
927  	562.7751      	17769.0860    	2842    
928  	563.2631      	17753.6920    	2872    
929  	563.7511      	17738.3246    	2887    
930  	564.2391      	17722.9819    	2910    
931  	564.7272      	17707.6638    	2872    
932  	565.2154      	17692.3702    	2894    
933  	565.7036      	17677.1031    	2872    
934  	566.1918      	17661.8603    	2898    
935  	566.6801      	17646.6419    	2892    
936  	567.1684      	17631.4479    	2901    
937  	567.6568      	17616.2780    	2824    
938  	568.1452      	17601.1343    	2874    
939  	568.6337      	17586.0147    	2854    
940  	569.1222      	17570.9191    	2885    
941  	569.6108      	17555.8476    	2874    
942  	570.0994      	17540.8018    	2875    
943  	570.5880      	17525.7800    	2888    
944  	571.0768      	17510.7802    	2984    
945  	571.5655      	17495.8079    	2875    
946  	572.0543      	17480.8574    	2884    
947  	572.5432      	17465.9324    	2912    
948  	573.0320      	17451.0311    	2887    
949  	573.5210      	17436.1533    	2872    
950  	574.0100      	17421.2990    	2880    
951  	574.4990      	17406.4700    	2873    
952  	574.9882      	17391.6625    	2854    
953  	575.4773      	17376.8802    	2885    
954  	575.9664      	17362.1230    	2870    
955  	576.4557      	17347.3871    	2913    
956  	576.9449      	17332.6763    	2872    
957  	577.4343      	17317.9867    	2896    
958  	577.9236      	17303.3239    	2858    
959  	578.4131      	17288.6822    	2887    
960  	578.9026      	17274.0634    	2896    
961  	579.3921      	17259.4693    	2941    
962  	579.8817      	17244.8981    	2905    
963  	580.3713      	17230.3496    	2901    
964  	580.8609      	17215.8257    	2874    
965  	581.3506      	17201.3226    	2868    
966  	581.8404      	17186.8439    	2864    
967  	582.3302      	17172.3878    	2884    
968  	582.8200      	17157.9559    	2948    
969  	583.3099      	17143.5448    	2944    
970  	583.7999      	17129.1578    	2940    
971  	584.2899      	17114.7931    	2872    
972  	584.7799      	17100.4507    	2849    
973  	585.2700      	17086.1324    	2849    
974  	585.7601      	17071.8345    	2848    
975  	586.2503      	17057.5604    	2884    
976  	586.7405      	17043.3102    	2866    
977  	587.2308      	17029.0803    	2848    
978  	587.7211      	17014.8723    	2762    
979  	588.2115      	17000.6881    	2870    
980  	588.7019      	16986.5257    	2914    
981  	589.1923      	16972.3868    	2860    
982  	589.6829      	16958.2680    	2859    
983  	590.1734      	16944.1727    	2940    
984  	590.6640      	16930.0990    	2867    
985  	591.1547      	16916.0469    	2888    
986  	591.6454      	16902.0164    	2855    
987  	592.1361      	16888.0091    	2896    
988  	592.6269      	16874.0233    	2897    
989  	593.1177      	16860.0589    	2882    
990  	593.6086      	16846.1159    	2874    
991  	594.0995      	16832.1959    	2864    
992  	594.5906      	16818.2955    	2932    
993  	595.0816      	16804.4180    	2864    
994  	595.5727      	16790.5616    	2921    
995  	596.0638      	16776.7281    	2907    
996  	596.5549      	16762.9157    	2858    
997  	597.0462      	16749.1225    	2900    
998  	597.5374      	16735.3537    	2813    
999  	598.0287      	16721.6042    	2836    
1000 	598.5201      	16707.8772    	2896    
1001 	599.0115      	16694.1693    	2928    
1002 	599.5030      	16680.4839    	2925    
1003 	599.9944      	16666.8210    	2824    
1004 	600.4860      	16653.1770    	2957    
1005 	600.9776      	16639.5553    	2848    
1006 	601.4692      	16625.9542    	2830    
1007 	601.9609      	16612.3736    	2872    
1008 	602.4527      	16598.8135    	2824    
1009 	602.9445      	16585.2756    	2801    
1010 	603.4363      	16571.7580    	2899    
1011 	603.9282      	16558.2608    	2857    
1012 	604.4201      	16544.7839    	2871    
1013 	604.9120      	16531.3289    	2908    
1014 	605.4041      	16517.8940    	2849    
1015 	605.8961      	16504.4794    	2844    
1016 	606.3882      	16491.0849    	2939    
1017 	606.8804      	16477.7120    	2966    
1018 	607.3726      	16464.3576    	2896    
1019 	607.8649      	16451.0248    	2932    
1020 	608.3572      	16437.7119    	2896    
1021 	608.8495      	16424.4205    	2799    
1022 	609.3419      	16411.1490    	2937    
1023 	609.8344      	16397.8956    	2885    
1024 	610.3268      	16384.6652    	2918    
1025 	610.8193      	16371.4529    	2883    
1026 	611.3120      	16358.2603    	2842    
1027 	611.8046      	16345.0889    	2905    
1028 	612.2972      	16331.9371    	2798    
1029 	612.7899      	16318.8064    	2901    
1030 	613.2827      	16305.6935    	2947    
1031 	613.7755      	16292.6018    	2881    
1032 	614.2684      	16279.5294    	2895    
1033 	614.7613      	16266.4763    	2798    
1034 	615.2542      	16253.4442    	2772    
1035 	615.7473      	16240.4297    	2846    
1036 	616.2403      	16227.4361    	2912    
1037 	616.7334      	16214.4616    	2892    
1038 	617.2265      	16201.5078    	2850    
1039 	617.7197      	16188.5716    	2913    
1040 	618.2130      	16175.6559    	2997    
1041 	618.7062      	16162.7593    	2909    
1042 	619.1995      	16149.8832    	2920    
1043 	619.6929      	16137.0245    	2836    
1044 	620.1863      	16124.1862    	2890    
1045 	620.6798      	16111.3667    	2842    
1046 	621.1733      	16098.5660    	2873    
1047 	621.6669      	16085.7856    	2854    
1048 	622.1605      	16073.0240    	2883    
1049 	622.6541      	16060.2809    	2908    
1050 	623.1478      	16047.5566    	2870    
1051 	623.6416      	16034.8507    	2860    
1052 	624.1354      	16022.1650    	2919    
1053 	624.6292      	16009.4978    	2847    
1054 	625.1231      	15996.8491    	2856    
1055 	625.6171      	15984.2187    	2868    
1056 	626.1110      	15971.6083    	2856    
1057 	626.6050      	15959.0162    	2864    
1058 	627.0991      	15946.4424    	2887    
1059 	627.5933      	15933.8868    	2920    
1060 	628.0874      	15921.3510    	2911    
1061 	628.5816      	15908.8334    	2932    
1062 	629.0759      	15896.3339    	2994    
1063 	629.5702      	15883.8524    	2861    
1064 	630.0645      	15871.3906    	2904    
1065 	630.5590      	15858.9452    	2839    
1066 	631.0534      	15846.5193    	2886    
1067 	631.5479      	15834.1129    	2856    
1068 	632.0424      	15821.7229    	2874    
1069 	632.5370      	15809.3522    	2822    
1070 	633.0316      	15796.9993    	2889    
1071 	633.5263      	15784.6642    	2848    
1072 	634.0210      	15772.3483    	2909    
1073 	634.5158      	15760.0486    	2903    
1074 	635.0106      	15747.7681    	2940    
1075 	635.5055      	15735.5052    	2885    
1076 	636.0004      	15723.2614    	2920    
1077 	636.4953      	15711.0351    	2907    
1078 	636.9904      	15698.8248    	2908    
1079 	637.4854      	15686.6350    	2920    
1080 	637.9805      	15674.4610    	2866    
1081 	638.4756      	15662.3060    	2848    
1082 	638.9708      	15650.1668    	2902    
1083 	639.4660      	15638.0479    	2834    
1084 	639.9613      	15625.9448    	2886    
1085 	640.4567      	15613.8589    	2931    
1086 	640.9520      	15601.7917    	2856    
1087 	641.4474      	15589.7416    	2808    
1088 	641.9429      	15577.7102    	2972    
1089 	642.4384      	15565.6943    	2892    
1090 	642.9340      	15553.6970    	2908    
1091 	643.4296      	15541.7167    	2816    
1092 	643.9252      	15529.7533    	2832    
1093 	644.4209      	15517.8084    	2909    
1094 	644.9166      	15505.8803    	2774    
1095 	645.4124      	15493.9691    	2910    
1096 	645.9083      	15482.0747    	2846    
1097 	646.4042      	15470.1971    	2883    
1098 	646.9001      	15458.3377    	2821    
1099 	647.3961      	15446.4951    	2918    
1100 	647.8921      	15434.6691    	2870    
1101 	648.3881      	15422.8612    	2908    
1102 	648.8842      	15411.0699    	2873    
1103 	649.3804      	15399.2952    	2864    
1104 	649.8766      	15387.5370    	2874    
1105 	650.3729      	15375.7953    	2888    
1106 	650.8691      	15364.0715    	2871    
1107 	651.3655      	15352.3641    	2904    
1108 	651.8619      	15340.6731    	2894    
1109 	652.3583      	15328.9985    	2840    
1110 	652.8548      	15317.3417    	2866    
1111 	653.3513      	15305.7011    	2928    
1112 	653.8479      	15294.0768    	2887    
1113 	654.3445      	15282.4701    	2920    
1114 	654.8412      	15270.8782    	2835    
1115 	655.3379      	15259.3039    	2859    
1116 	655.8347      	15247.7456    	2893    
1117 	656.3314      	15236.2049    	2878    
1118 	656.8283      	15224.6788    	2940    
1119 	657.3252      	15213.1701    	2879    
1120 	657.8221      	15201.6774    	2900    
1121 	658.3191      	15190.2020    	2964    
1122 	658.8162      	15178.7412    	2950    
1123 	659.3132      	15167.2976    	2845    
1124 	659.8104      	15155.8699    	2900    
1125 	660.3075      	15144.4593    	2849    
1126 	660.8047      	15133.0632    	2912    
1127 	661.3020      	15121.6841    	2843    
1128 	661.7993      	15110.3208    	2836    
1129 	662.2966      	15098.9746    	2827    
1130 	662.7941      	15087.6426    	2840    
1131 	663.2915      	15076.3276    	2906    
1132 	663.7890      	15065.0282    	2956    
1133 	664.2865      	15053.7457    	2904    
1134 	664.7841      	15042.4773    	2848    
1135 	665.2817      	15031.2258    	2877    
1136 	665.7794      	15019.9897    	2864    
1137 	666.2771      	15008.7704    	2915    
1138 	666.7749      	14997.5651    	2861    
1139 	667.2727      	14986.3765    	2839    
1140 	667.7706      	14975.2033    	2928    
1141 	668.2684      	14964.0466    	2853    
1142 	668.7664      	14952.9039    	2895    
1143 	669.2644      	14941.7778    	2913    
1144 	669.7625      	14930.6668    	2856    
1145 	670.2605      	14919.5724    	2956    
1146 	670.7587      	14908.4917    	2880    
1147 	671.2568      	14897.4274    	2883    
1148 	671.7551      	14886.3782    	2896    
1149 	672.2533      	14875.3454    	2886    
1150 	672.7516      	14864.3263    	2918    
1151 	673.2500      	14853.3234    	2978    
1152 	673.7484      	14842.3355    	2903    
1153 	674.2469      	14831.3625    	2874    
1154 	674.7454      	14820.4057    	2873    
1155 	675.2439      	14809.4637    	2924    
1156 	675.7425      	14798.5366    	2849    
1157 	676.2411      	14787.6255    	2885    
1158 	676.7398      	14776.7279    	2863    
1159 	677.2385      	14765.8463    	2822    
1160 	677.7373      	14754.9794    	2824    
1161 	678.2361      	14744.1285    	2856    
1162 	678.7350      	14733.2909    	2901    
1163 	679.2339      	14722.4692    	2820    
1164 	679.7328      	14711.6621    	2900    
1165 	680.2318      	14700.8708    	2917    
1166 	680.7309      	14690.0928    	2848    
1167 	681.2300      	14679.3305    	2843    
1168 	681.7291      	14668.5826    	2867    
1169 	682.2283      	14657.8505    	2872    
1170 	682.7275      	14647.1314    	2878    
1171 	683.2268      	14636.4281    	2875    
1172 	683.7261      	14625.7403    	2944    
1173 	684.2255      	14615.0655    	2949    
1174 	684.7249      	14604.4064    	2872    
1175 	685.2243      	14593.7614    	2908    
1176 	685.7238      	14583.1307    	2901    
1177 	686.2234      	14572.5141    	2920    
1178 	686.7230      	14561.9130    	2888    
1179 	687.2226      	14551.3260    	2825    
1180 	687.7223      	14540.7531    	2936    
1181 	688.2220      	14530.1955    	2874    
1182 	688.7218      	14519.6507    	2840    
1183 	689.2216      	14509.1212    	2865    
1184 	689.7214      	14498.6070    	2889    
1185 	690.2214      	14488.1054    	2953    
1186 	690.7213      	14477.6190    	2968    
1187 	691.2213      	14467.1465    	2857    
1188 	691.7214      	14456.6879    	2889    
1189 	692.2214      	14446.2443    	2859    
1190 	692.7216      	14435.8146    	2880    
1191 	693.2217      	14425.3987    	2902    
1192 	693.7220      	14414.9965    	2863    
1193 	694.2222      	14404.6093    	2948    
1194 	694.7226      	14394.2346    	2836    
1195 	695.2230      	14383.8747    	2843    
1196 	695.7233      	14373.5298    	2804    
1197 	696.2238      	14363.1973    	2940    
1198 	696.7243      	14352.8795    	2933    
1199 	697.2249      	14342.5754    	2926    
1200 	697.7254      	14332.2860    	2944    
1201 	698.2261      	14322.0088    	2920    
1202 	698.7267      	14311.7464    	2954    
1203 	699.2275      	14301.4975    	2936    
1204 	699.7282      	14291.2632    	2872    
1205 	700.2290      	14281.0423    	2837    
1206 	700.7299      	14270.8335    	2960    
1207 	701.2308      	14260.6405    	2872    
1208 	701.7318      	14250.4597    	2908    
1209 	702.2327      	14240.2933    	2916    
1210 	702.7338      	14230.1402    	2837    
1211 	703.2349      	14220.0003    	2884    
1212 	703.7360      	14209.8737    	2916    
1213 	704.2372      	14199.7615    	2958    
1214 	704.7384      	14189.6624    	2892    
1215 	705.2396      	14179.5776    	2889    
1216 	705.7410      	14169.5048    	2884    
1217 	706.2423      	14159.4462    	2890    
1218 	706.7437      	14149.4007    	2900    
1219 	707.2452      	14139.3682    	2891    
1220 	707.7466      	14129.3500    	2892    
1221 	708.2482      	14119.3447    	2912    
1222 	708.7498      	14109.3523    	2848    
1223 	709.2514      	14099.3729    	2941    
1224 	709.7531      	14089.4075    	3047    
1225 	710.2548      	14079.4551    	2891    
1226 	710.7565      	14069.5155    	2862    
1227 	711.2584      	14059.5887    	2845    
1228 	711.7602      	14049.6759    	2982    
1229 	712.2621      	14039.7758    	2968    
1230 	712.7640      	14029.8885    	2874    
1231 	713.2660      	14020.0151    	2942    
1232 	713.7681      	14010.1533    	2939    
1233 	714.2701      	14000.3052    	2937    
1234 	714.7722      	13990.4710    	2923    
1235 	715.2744      	13980.6483    	2904    
1236 	715.7766      	13970.8393    	2901    
1237 	716.2789      	13961.0429    	2956    
1238 	716.7812      	13951.2590    	2892    
1239 	717.2835      	13941.4888    	2915    
1240 	717.7859      	13931.7311    	2876    
1241 	718.2883      	13921.9859    	2864    
1242 	718.7908      	13912.2531    	2888    
1243 	719.2933      	13902.5339    	2900    
1244 	719.7959      	13892.8271    	2896    
1245 	720.2985      	13883.1327    	2960    
1246 	720.8012      	13873.4507    	2808    
1247 	721.3039      	13863.7821    	2960    
1248 	721.8066      	13854.1258    	2840    
1249 	722.3094      	13844.4818    	2880    
1250 	722.8123      	13834.8512    	2921    
1251 	723.3151      	13825.2328    	2944    
1252 	723.8181      	13815.6267    	2895    
1253 	724.3210      	13806.0327    	2923    
1254 	724.8240      	13796.4520    	2945    
1255 	725.3271      	13786.8823    	2871    
1256 	725.8302      	13777.3270    	2898    
1257 	726.3334      	13767.7826    	2961    
1258 	726.8365      	13758.2515    	2880    
1259 	727.3398      	13748.7312    	2924    
1260 	727.8431      	13739.2252    	2920    
1261 	728.3464      	13729.7301    	2881    
1262 	728.8498      	13720.2481    	2940    
1263 	729.3532      	13710.7781    	2949    
1264 	729.8567      	13701.3199    	2936    
1265 	730.3602      	13691.8748    	2936    
1266 	730.8638      	13682.4404    	2977    
1267 	731.3674      	13673.0191    	2970    
1268 	731.8710      	13663.6106    	2870    
1269 	732.3747      	13654.2129    	2960    
1270 	732.8784      	13644.8281    	2945    
1271 	733.3822      	13635.4550    	2950    
1272 	733.8860      	13626.0948    	2901    
1273 	734.3899      	13616.7451    	2952    
1274 	734.8938      	13607.4083    	2874    
1275 	735.3977      	13598.0843    	2920    
1276 	735.9017      	13588.7708    	2907    
1277 	736.4058      	13579.4701    	2864    
1278 	736.9099      	13570.1809    	2896    
1279 	737.4140      	13560.9033    	2921    
1280 	737.9182      	13551.6385    	2977    
1281 	738.4224      	13542.3851    	2973    
1282 	738.9266      	13533.1432    	2920    
1283 	739.4310      	13523.9129    	2954    
1284 	739.9353      	13514.6951    	2953    
1285 	740.4397      	13505.4887    	2929    
1286 	740.9442      	13496.2938    	2951    
1287 	741.4487      	13487.1103    	2977    
1288 	741.9532      	13477.9393    	3002    
1289 	742.4578      	13468.7796    	2997    
1290 	742.9624      	13459.6313    	3013    
1291 	743.4670      	13450.4954    	2932    
1292 	743.9717      	13441.3708    	2912    
1293 	744.4765      	13432.2574    	2900    
1294 	744.9813      	13423.1553    	3040    
1295 	745.4861      	13414.0655    	2945    
1296 	745.9910      	13404.9870    	2859    
1297 	746.4960      	13395.9196    	2949    
1298 	747.0010      	13386.8634    	2979    
1299 	747.5060      	13377.8194    	3016    
1300 	748.0110      	13368.7865    	3020    
1301 	748.5161      	13359.7658    	2940    
1302 	749.0213      	13350.7552    	2899    
1303 	749.5265      	13341.7566    	2875    
1304 	750.0317      	13332.7691    	2868    
1305 	750.5370      	13323.7926    	2986    
1306 	751.0424      	13314.8282    	2940    
1307 	751.5477      	13305.8748    	2917    
1308 	752.0532      	13296.9323    	2947    
1309 	752.5586      	13288.0019    	2967    
1310 	753.0641      	13279.0823    	2968    
1311 	753.5696      	13270.1737    	2982    
1312 	754.0753      	13261.2759    	2920    
1313 	754.5809      	13252.3889    	2938    
1314 	755.0866      	13243.5139    	2972    
1315 	755.5923      	13234.6497    	3028    
1316 	756.0981      	13225.7973    	2957    
1317 	756.6039      	13216.9557    	3080    
1318 	757.1097      	13208.1249    	3000    
1319 	757.6157      	13199.3047    	2884    
1320 	758.1216      	13190.4953    	2864    
1321 	758.6276      	13181.6977    	2954    
1322 	759.1337      	13172.9107    	3055    
1323 	759.6397      	13164.1354    	2924    
1324 	760.1459      	13155.3697    	2946    
1325 	760.6520      	13146.6157    	2928    
1326 	761.1583      	13137.8722    	3013    
1327 	761.6645      	13129.1404    	3021    
1328 	762.1708      	13120.4191    	2983    
1329 	762.6771      	13111.7083    	2993    
1330 	763.1835      	13103.0081    	2986    
1331 	763.6900      	13094.3183    	2907    
1332 	764.1965      	13085.6401    	2963    
1333 	764.7030      	13076.9723    	2906    
1334 	765.2095      	13068.3160    	2947    
1335 	765.7161      	13059.6701    	2912    
1336 	766.2228      	13051.0336    	2976    
1337 	766.7295      	13042.4095    	3064    
1338 	767.2363      	13033.7947    	2993    
1339 	767.7430      	13025.1913    	2997    
1340 	768.2499      	13016.5982    	2981    
1341 	768.7567      	13008.0165    	2946    
1342 	769.2637      	12999.4440    	2938    
1343 	769.7706      	12990.8828    	3004    
1344 	770.2776      	12982.3318    	2959    
1345 	770.7847      	12973.7921    	3023    
1346 	771.2917      	12965.2625    	3048    
1347 	771.7989      	12956.7432    	3002    
1348 	772.3061      	12948.2340    	3065    
1349 	772.8133      	12939.7360    	3040    
1350 	773.3206      	12931.2481    	3049    
1351 	773.8279      	12922.7704    	2985    
1352 	774.3353      	12914.3027    	2981    
1353 	774.8427      	12905.8461    	2944    
1354 	775.3501      	12897.3995    	2915    
1355 	775.8576      	12888.9630    	2994    
1356 	776.3651      	12880.5376    	2941    
1357 	776.8727      	12872.1221    	2877    
1358 	777.3803      	12863.7166    	2931    
1359 	777.8880      	12855.3211    	2924    
1360 	778.3957      	12846.9365    	2929    
1361 	778.9034      	12838.5618    	2868    
1362 	779.4113      	12830.1971    	2928    
1363 	779.9191      	12821.8432    	2972    
1364 	780.4269      	12813.4992    	3012    
1365 	780.9349      	12805.1651    	2922    
1366 	781.4429      	12796.8408    	3017    
1367 	781.9509      	12788.5273    	2888    
1368 	782.4589      	12780.2236    	2912    
1369 	782.9670      	12771.9297    	2989    
1370 	783.4752      	12763.6465    	2921    
1371 	783.9833      	12755.3731    	2962    
1372 	784.4916      	12747.1095    	2986    
1373 	784.9999      	12738.8555    	2979    
1374 	785.5082      	12730.6122    	2994    
1375 	786.0165      	12722.3786    	2945    
1376 	786.5250      	12714.1546    	3039    
1377 	787.0334      	12705.9413    	2924    
1378 	787.5419      	12697.7376    	2964    
1379 	788.0504      	12689.5435    	2983    
1380 	788.5590      	12681.3590    	2946    
1381 	789.0676      	12673.1850    	2969    
1382 	789.5763      	12665.0206    	2932    
1383 	790.0850      	12656.8657    	2984    
1384 	790.5938      	12648.7213    	2970    
1385 	791.1026      	12640.5854    	2986    
1386 	791.6114      	12632.4610    	2965    
1387 	792.1203      	12624.3451    	2969    
1388 	792.6292      	12616.2395    	2936    
1389 	793.1382      	12608.1435    	2969    
1390 	793.6472      	12600.0568    	2923    
1391 	794.1563      	12591.9795    	2978    
1392 	794.6654      	12583.9126    	2939    
1393 	795.1746      	12575.8550    	2968    
1394 	795.6837      	12567.8078    	3004    
1395 	796.1929      	12559.7699    	3041    
1396 	796.7022      	12551.7413    	2986    
1397 	797.2115      	12543.7220    	2974    
1398 	797.7209      	12535.7119    	2931    
1399 	798.2303      	12527.7121    	2969    
1400 	798.7398      	12519.7216    	2946    
1401 	799.2493      	12511.7412    	3023    
1402 	799.7588      	12503.7701    	2920    
1403 	800.2684      	12495.8081    	2962    
1404 	800.7780      	12487.8553    	2907    
1405 	801.2877      	12479.9127    	3035    
1406 	801.7974      	12471.9782    	2956    
1407 	802.3071      	12464.0548    	2924    
1408 	802.8170      	12456.1395    	2915    
1409 	803.3268      	12448.2343    	2906    
1410 	803.8367      	12440.3382    	3009    
1411 	804.3466      	12432.4511    	2921    
1412 	804.8566      	12424.5740    	2896    
1413 	805.3666      	12416.7060    	2908    
1414 	805.8766      	12408.8470    	2908    
1415 	806.3867      	12400.9979    	2909    
1416 	806.8969      	12393.1569    	2963    
1417 	807.4071      	12385.3257    	2998    
1418 	807.9173      	12377.5045    	3083    
1419 	808.4276      	12369.6913    	3168    
1420 	808.9379      	12361.8879    	3196    
1421 	809.4482      	12354.0944    	3234    
1422 	809.9587      	12346.3088    	3273    
1423 	810.4691      	12338.5331    	3290    
1424 	810.9796      	12330.7662    	3253    
1425 	811.4901      	12323.0091    	3141    
1426 	812.0007      	12315.2598    	3053    
1427 	812.5114      	12307.5203    	3044    
1428 	813.0220      	12299.7906    	3032    
1429 	813.5327      	12292.0687    	3052    
1430 	814.0435      	12284.3565    	2921    
1431 	814.5543      	12276.6530    	2976    
1432 	815.0651      	12268.9592    	2980    
1433 	815.5759      	12261.2741    	3019    
1434 	816.0869      	12253.5977    	2969    
1435 	816.5978      	12245.9300    	2970    
1436 	817.1088      	12238.2719    	2979    
1437 	817.6199      	12230.6225    	3005    
1438 	818.1310      	12222.9817    	2966    
1439 	818.6422      	12215.3495    	3022    
1440 	819.1533      	12207.7269    	2974    
1441 	819.6646      	12200.1128    	2980    
1442 	820.1758      	12192.5083    	2921    
1443 	820.6871      	12184.9114    	2937    
1444 	821.1985      	12177.3240    	2979    
1445 	821.7098      	12169.7460    	2939    
1446 	822.2213      	12162.1756    	2993    
1447 	822.7328      	12154.6147    	2899    
1448 	823.2443      	12147.0622    	3016    
1449 	823.7559      	12139.5191    	3030    
1450 	824.2675      	12131.9845    	2904    
1451 	824.7791      	12124.4583    	2940    
1452 	825.2908      	12116.9406    	2946    
1453 	825.8026      	12109.4322    	2999    
1454 	826.3143      	12101.9322    	2964    
1455 	826.8262      	12094.4406    	2999    
1456 	827.3380      	12086.9582    	3020    
1457 	827.8500      	12079.4834    	3044    
1458 	828.3619      	12072.0186    	3025    
1459 	828.8739      	12064.5613    	2971    
1460 	829.3859      	12057.1132    	2937    
1461 	829.8980      	12049.6734    	3034    
1462 	830.4102      	12042.2419    	3008    
1463 	830.9223      	12034.8196    	2971    
1464 	831.4345      	12027.4055    	3036    
1465 	831.9468      	12019.9997    	2924    
1466 	832.4590      	12012.6030    	3028    
1467 	832.9714      	12005.2145    	2998    
1468 	833.4838      	11997.8342    	2994    
1469 	833.9962      	11990.4621    	3006    
1470 	834.5087      	11983.0990    	3000    
1471 	835.0212      	11975.7441    	2970    
1472 	835.5338      	11968.3974    	3016    
1473 	836.0463      	11961.0597    	3025    
1474 	836.5590      	11953.7301    	3083    
1475 	837.0717      	11946.4086    	3024    
1476 	837.5844      	11939.0960    	3088    
1477 	838.0972      	11931.7907    	3028    
1478 	838.6099      	11924.4952    	3031    
1479 	839.1228      	11917.2068    	2962    
1480 	839.6357      	11909.9274    	2969    
1481 	840.1486      	11902.6560    	3071    
1482 	840.6616      	11895.3926    	3024    
1483 	841.1746      	11888.1380    	3079    
1484 	841.6877      	11880.8915    	3074    
1485 	842.2008      	11873.6529    	3065    
1486 	842.7139      	11866.4231    	3066    
1487 	843.2272      	11859.2004    	3037    
1488 	843.7404      	11851.9873    	3037    
1489 	844.2537      	11844.7813    	3024    
1490 	844.7670      	11837.5841    	2992    
1491 	845.2803      	11830.3947    	3062    
1492 	845.7938      	11823.2132    	3065    
1493 	846.3072      	11816.0405    	2990    
1494 	846.8207      	11808.8755    	3032    
1495 	847.3342      	11801.7185    	3047    
1496 	847.8478      	11794.5700    	3084    
1497 	848.3615      	11787.4286    	2952    
1498 	848.8751      	11780.2966    	3011    
1499 	849.3888      	11773.1716    	2984    
1500 	849.9025      	11766.0551    	2999    
1501 	850.4163      	11758.9465    	3076    
1502 	850.9302      	11751.8456    	2947    
1503 	851.4440      	11744.7532    	3009    
1504 	851.9579      	11737.6686    	3038    
1505 	852.4719      	11730.5916    	3080    
1506 	852.9859      	11723.5232    	2966    
1507 	853.4999      	11716.4625    	2940    
1508 	854.0140      	11709.4094    	2956    
1509 	854.5281      	11702.3648    	3032    
1510 	855.0423      	11695.3279    	3032    
1511 	855.5565      	11688.2985    	2996    
1512 	856.0708      	11681.2768    	3031    
1513 	856.5851      	11674.2635    	2971    
1514 	857.0994      	11667.2578    	3021    
1515 	857.6138      	11660.2597    	3025    
1516 	858.1282      	11653.2700    	2996    
1517 	858.6427      	11646.2878    	3024    
1518 	859.1572      	11639.3131    	2958    
1519 	859.6718      	11632.3468    	3046    
1520 	860.1863      	11625.3880    	3051    
1521 	860.7010      	11618.4368    	3000    
1522 	861.2157      	11611.4929    	3015    
1523 	861.7304      	11604.5574    	3017    
1524 	862.2452      	11597.6294    	2988    
1525 	862.7599      	11590.7096    	2900    
1526 	863.2748      	11583.7972    	2994    
1527 	863.7897      	11576.8923    	3053    
1528 	864.3046      	11569.9948    	2938    
1529 	864.8196      	11563.1055    	3023    
1530 	865.3346      	11556.2235    	2986    
1531 	865.8497      	11549.3490    	3031    
1532 	866.3648      	11542.4818    	2974    
1533 	866.8799      	11535.6227    	3021    
1534 	867.3951      	11528.7719    	2997    
1535 	867.9103      	11521.9275    	2931    
1536 	868.4256      	11515.0912    	2973    
1537 	868.9409      	11508.2623    	3062    
1538 	869.4563      	11501.4406    	3050    
1539 	869.9717      	11494.6270    	2979    
1540 	870.4871      	11487.8207    	2968    
1541 	871.0026      	11481.0225    	2958    
1542 	871.5181      	11474.2306    	3002    
1543 	872.0337      	11467.4468    	2961    
1544 	872.5493      	11460.6711    	3060    
1545 	873.0649      	11453.9017    	2988    
1546 	873.5806      	11447.1403    	2922    
1547 	874.0964      	11440.3861    	3007    
1548 	874.6121      	11433.6398    	3037    
1549 	875.1279      	11426.9008    	3015    
1550 	875.6438      	11420.1688    	2958    
1551 	876.1597      	11413.4440    	3011    
1552 	876.6757      	11406.7271    	2989    
1553 	877.1917      	11400.0173    	2984    
1554 	877.7076      	11393.3154    	2986    
1555 	878.2238      	11386.6198    	2959    
1556 	878.7399      	11379.9321    	2986    
1557 	879.2560      	11373.2522    	2935    
1558 	879.7722      	11366.5785    	3044    
1559 	880.2885      	11359.9127    	3057    
1560 	880.8047      	11353.2547    	2983    
1561 	881.3210      	11346.6030    	2985    
1562 	881.8374      	11339.9590    	3030    
1563 	882.3538      	11333.3220    	3055    
1564 	882.8702      	11326.6928    	2998    
1565 	883.3867      	11320.0706    	2952    
1566 	883.9033      	11313.4553    	2900    
1567 	884.4198      	11306.8477    	3042    
1568 	884.9365      	11300.2463    	3022    
1569 	885.4531      	11293.6526    	3010    
1570 	885.9698      	11287.0666    	3042    
1571 	886.4865      	11280.4875    	2915    
1572 	887.0033      	11273.9153    	2907    
1573 	887.5201      	11267.3499    	3020    
1574 	888.0370      	11260.7922    	2955    
1575 	888.5539      	11254.2414    	2955    
1576 	889.0709      	11247.6974    	2969    
1577 	889.5878      	11241.1610    	2972    
1578 	890.1049      	11234.6314    	3048    
1579 	890.6219      	11228.1086    	2951    
1580 	891.1391      	11221.5927    	3039    
1581 	891.6563      	11215.0843    	2964    
1582 	892.1735      	11208.5827    	2975    
1583 	892.6907      	11202.0886    	3033    
1584 	893.2079      	11195.6012    	2977    
1585 	893.7253      	11189.1207    	3001    
1586 	894.2427      	11182.6468    	2920    
1587 	894.7601      	11176.1804    	3002    
1588 	895.2775      	11169.7208    	2984    
1589 	895.7950      	11163.2686    	2984    
1590 	896.3126      	11156.8223    	2986    
1591 	896.8301      	11150.3843    	3017    
1592 	897.3477      	11143.9521    	3004    
1593 	897.8654      	11137.5274    	2951    
1594 	898.3831      	11131.1093    	2936    
1595 	898.9008      	11124.6979    	2902    
1596 	899.4186      	11118.2938    	2960    
1597 	899.9364      	11111.8963    	2993    
1598 	900.4543      	11105.5055    	3010    
1599 	900.9722      	11099.1212    	3064    
1600 	901.4902      	11092.7443    	3041    
1601 	902.0081      	11086.3747    	3000    
1602 	902.5262      	11080.0109    	2971    
1603 	903.0443      	11073.6545    	3006    
1604 	903.5624      	11067.3045    	2988    
1605 	904.0805      	11060.9619    	2982    
1606 	904.5987      	11054.6257    	2917    
1607 	905.1169      	11048.2961    	2960    
1608 	905.6353      	11041.9730    	2978    
1609 	906.1536      	11035.6571    	3025    
1610 	906.6719      	11029.3477    	2963    
1611 	907.1904      	11023.0447    	3034    
1612 	907.7088      	11016.7490    	3020    
1613 	908.2273      	11010.4597    	2986    
1614 	908.7458      	11004.1775    	2957    
1615 	909.2644      	10997.9011    	3019    
1616 	909.7830      	10991.6318    	3043    
1617 	910.3016      	10985.3697    	3053    
1618 	910.8203      	10979.1140    	2969    
1619 	911.3391      	10972.8646    	3010    
1620 	911.8578      	10966.6216    	3043    
1621 	912.3767      	10960.3850    	2954    
1622 	912.8956      	10954.1555    	2966    
1623 	913.4144      	10947.9330    	2956    
1624 	913.9334      	10941.7162    	2934    
1625 	914.4524      	10935.5064    	2937    
1626 	914.9714      	10929.3037    	3035    
1627 	915.4905      	10923.1065    	3049    
1628 	916.0096      	10916.9164    	3106    
1629 	916.5287      	10910.7325    	3035    
1630 	917.0479      	10904.5557    	2952    
1631 	917.5671      	10898.3851    	3023    
1632 	918.0864      	10892.2207    	2896    
1633 	918.6058      	10886.0626    	2957    
1634 	919.1251      	10879.9115    	2996    
1635 	919.6445      	10873.7666    	2897    
1636 	920.1639      	10867.6286    	2976    
1637 	920.6834      	10861.4969    	2994    
1638 	921.2029      	10855.3713    	3005    
1639 	921.7225      	10849.2519    	3016    
1640 	922.2421      	10843.1395    	2976    
1641 	922.7618      	10837.0332    	2944    
1642 	923.2814      	10830.9337    	2973    
1643 	923.8012      	10824.8397    	3003    
1644 	924.3210      	10818.7525    	3059    
1645 	924.8408      	10812.6722    	2978    
1646 	925.3606      	10806.5980    	2977    
1647 	925.8805      	10800.5300    	2959    
1648 	926.4005      	10794.4680    	3020    
1649 	926.9204      	10788.4128    	2983    
1650 	927.4404      	10782.3637    	3010    
1651 	927.9605      	10776.3206    	2978    
1652 	928.4806      	10770.2844    	2968    
1653 	929.0007      	10764.2542    	3044    
1654 	929.5209      	10758.2300    	3026    
1655 	930.0411      	10752.2126    	3098    
1656 	930.5614      	10746.2011    	3017    
1657 	931.0817      	10740.1958    	2989    
1658 	931.6021      	10734.1971    	3011    
1659 	932.1224      	10728.2044    	3082    
1660 	932.6429      	10722.2177    	3012    
1661 	933.1633      	10716.2376    	3052    
1662 	933.6838      	10710.2636    	2954    
1663 	934.2044      	10704.2955    	3064    
1664 	934.7250      	10698.3340    	2983    
1665 	935.2456      	10692.3785    	3012    
1666 	935.7663      	10686.4289    	3056    
1667 	936.2870      	10680.4859    	2989    
1668 	936.8077      	10674.5489    	3002    
1669 	937.3286      	10668.6177    	3089    
1670 	937.8494      	10662.6925    	3022    
1671 	938.3703      	10656.7738    	3015    
1672 	938.8912      	10650.8616    	3175    
1673 	939.4122      	10644.9547    	3060    
1674 	939.9332      	10639.0543    	3118    
1675 	940.4542      	10633.1598    	3216    
1676 	940.9753      	10627.2717    	3108    
1677 	941.4964      	10621.3895    	3146    
1678 	942.0176      	10615.5132    	3102    
1679 	942.5388      	10609.6433    	3152    
1680 	943.0600      	10603.7792    	3174    
1681 	943.5813      	10597.9209    	3186    
1682 	944.1027      	10592.0684    	3020    
1683 	944.6240      	10586.2224    	3016    
1684 	945.1454      	10580.3821    	3116    
1685 	945.6669      	10574.5483    	3096    
1686 	946.1884      	10568.7202    	3080    
1687 	946.7099      	10562.8979    	3159    
1688 	947.2314      	10557.0820    	3048    
1689 	947.7531      	10551.2717    	3137    
1690 	948.2747      	10545.4673    	3083    
1691 	948.7964      	10539.6685    	3141    
1692 	949.3182      	10533.8760    	3098    
1693 	949.8400      	10528.0893    	3048    
1694 	950.3618      	10522.3089    	3164    
1695 	950.8836      	10516.5342    	3084    
1696 	951.4055      	10510.7652    	3157    
1697 	951.9274      	10505.0025    	3283    
1698 	952.4495      	10499.2447    	3170    
1699 	952.9714      	10493.4940    	3131    
1700 	953.4935      	10487.7481    	3140    
1701 	954.0156      	10482.0086    	3132    
1702 	954.5378      	10476.2747    	3116    
1703 	955.0599      	10470.5470    	3121    
1704 	955.5822      	10464.8250    	3145    
1705 	956.1044      	10459.1085    	3132    
1706 	956.6268      	10453.3976    	3120    
1707 	957.1491      	10447.6930    	3157    
1708 	957.6714      	10441.9945    	3118    
1709 	958.1939      	10436.3010    	3124    
1710 	958.7164      	10430.6136    	3097    
1711 	959.2389      	10424.9318    	3035    
1712 	959.7614      	10419.2561    	3085    
1713 	960.2840      	10413.5860    	3080    
1714 	960.8066      	10407.9214    	3136    
1715 	961.3293      	10402.2623    	3136    
1716 	961.8521      	10396.6093    	3178    
1717 	962.3748      	10390.9625    	3144    
1718 	962.8976      	10385.3205    	3144    
1719 	963.4204      	10379.6846    	3025    
1720 	963.9433      	10374.0542    	3004    
1721 	964.4662      	10368.4299    	3107    
1722 	964.9891      	10362.8110    	3065    
1723 	965.5121      	10357.1975    	3091    
1724 	966.0352      	10351.5901    	3032    
1725 	966.5582      	10345.9882    	3025    
1726 	967.0814      	10340.3916    	3033    
1727 	967.6046      	10334.8005    	2997    
1728 	968.1277      	10329.2154    	3008    
1729 	968.6509      	10323.6363    	3082    
1730 	969.1743      	10318.0619    	3017    
1731 	969.6976      	10312.4936    	3048    
1732 	970.2209      	10306.9313    	3015    
1733 	970.7443      	10301.3737    	3047    
1734 	971.2678      	10295.8220    	3020    
1735 	971.7912      	10290.2764    	3028    
1736 	972.3148      	10284.7354    	2950    
1737 	972.8383      	10279.2004    	3011    
1738 	973.3619      	10273.6707    	2946    
1739 	973.8856      	10268.1469    	2960    
1740 	974.4092      	10262.6285    	3026    
1741 	974.9329      	10257.1159    	2911    
1742 	975.4567      	10251.6080    	3020    
1743 	975.9805      	10246.1060    	2980    
1744 	976.5043      	10240.6100    	3006    
1745 	977.0283      	10235.1185    	2971    
1746 	977.5522      	10229.6329    	2944    
1747 	978.0761      	10224.1532    	2917    
1748 	978.6001      	10218.6787    	2971    
1749 	979.1241      	10213.2095    	2997    
1750 	979.6483      	10207.7454    	2958    
1751 	980.1724      	10202.2872    	2990    
1752 	980.6965      	10196.8343    	2954    
1753 	981.2208      	10191.3864    	3020    
1754 	981.7450      	10185.9445    	2897    
1755 	982.2693      	10180.5077    	3000    
1756 	982.7936      	10175.0767    	2974    
1757 	983.3180      	10169.6502    	2963    
1758 	983.8423      	10164.2301    	2976    
1759 	984.3668      	10158.8146    	3008    
1760 	984.8913      	10153.4048    	2929    
1761 	985.4158      	10148.0001    	2961    
1762 	985.9404      	10142.6012    	2966    
1763 	986.4650      	10137.2074    	2932    
1764 	986.9896      	10131.8188    	2912    
1765 	987.5143      	10126.4352    	3009    
1766 	988.0391      	10121.0573    	2920    
1767 	988.5638      	10115.6846    	2976    
1768 	989.0886      	10110.3175    	2988    
1769 	989.6135      	10104.9555    	3015    
1770 	990.1384      	10099.5985    	3056    
1771 	990.6633      	10094.2473    	2997    
1772 	991.1882      	10088.9011    	2987    
1773 	991.7133      	10083.5599    	2950    
1774 	992.2383      	10078.2243    	2920    
1775 	992.7634      	10072.8938    	2968    
1776 	993.2885      	10067.5684    	3004    
1777 	993.8137      	10062.2485    	2981    
1778 	994.3389      	10056.9336    	2937    
1779 	994.8641      	10051.6238    	2952    
1780 	995.3894      	10046.3195    	2948    
1781 	995.9147      	10041.0202    	2922    
1782 	996.4401      	10035.7259    	3036    
1783 	996.9655      	10030.4372    	3056    
1784 	997.4910      	10025.1534    	2992    
1785 	998.0164      	10019.8752    	3140    
1786 	998.5420      	10014.6014    	3237    
1787 	999.0675      	10009.3337    	3105    
1788 	999.5931      	10004.0703    	3014    
1789 	1000.1188     	9998.8124     	3032    
1790 	1000.6445     	9993.5594     	3088    
1791 	1001.1702     	9988.3120     	2976    
1792 	1001.6959     	9983.0695     	2969    
1793 	1002.2217     	9977.8318     	3075    
1794 	1002.7476     	9972.5991     	3073    
1795 	1003.2735     	9967.3718     	3064    
1796 	1003.7994     	9962.1494     	3106    
1797 	1004.3254     	9956.9325     	3055    
1798 	1004.8514     	9951.7204     	3009    
1799 	1005.3774     	9946.5132     	3010    
1800 	1005.9035     	9941.3114     	3043    
1801 	1006.4296     	9936.1145     	3036    
1802 	1006.9558     	9930.9224     	3023    
1803 	1007.4820     	9925.7357     	3112    
1804 	1008.0082     	9920.5538     	3094    
1805 	1008.5345     	9915.3774     	3075    
1806 	1009.0609     	9910.2051     	3076    
1807 	1009.5872     	9905.0382     	3089    
1808 	1010.1136     	9899.8767     	3121    
1809 	1010.6400     	9894.7200     	3112    
1810 	1011.1665     	9889.5681     	3085    
1811 	1011.6931     	9884.4209     	3064    
1812 	1012.2196     	9879.2791     	3021    
1813 	1012.7462     	9874.1421     	3025    
1814 	1013.2728     	9869.0103     	3187    
1815 	1013.7995     	9863.8833     	3056    
1816 	1014.3262     	9858.7611     	3112    
1817 	1014.8530     	9853.6442     	3094    
1818 	1015.3798     	9848.5319     	3019    
1819 	1015.9066     	9843.4244     	3116    
1820 	1016.4335     	9838.3222     	3142    
1821 	1016.9604     	9833.2247     	3143    
1822 	1017.4874     	9828.1319     	3119    
1823 	1018.0143     	9823.0443     	3051    
1824 	1018.5414     	9817.9614     	3078    
1825 	1019.0685     	9812.8832     	3078    
1826 	1019.5956     	9807.8103     	3085    
1827 	1020.1227     	9802.7420     	3112    
1828 	1020.6499     	9797.6789     	3176    
1829 	1021.1771     	9792.6205     	3233    
1830 	1021.7044     	9787.5667     	3202    
1831 	1022.2318     	9782.5175     	3219    
1832 	1022.7591     	9777.4736     	3181    
1833 	1023.2864     	9772.4348     	3306    
1834 	1023.8139     	9767.4001     	3304    
1835 	1024.3413     	9762.3711     	3232    
1836 	1024.8689     	9757.3456     	3142    
1837 	1025.3964     	9752.3264     	3348    
1838 	1025.9240     	9747.3112     	3285    
1839 	1026.4517     	9742.3000     	3305    
1840 	1026.9792     	9737.2951     	3404    
1841 	1027.5070     	9732.2942     	3264    
1842 	1028.0348     	9727.2973     	3320    
1843 	1028.5625     	9722.3066     	3317    
1844 	1029.0903     	9717.3199     	3438    
1845 	1029.6182     	9712.3384     	3460    
1846 	1030.1461     	9707.3608     	3372    
1847 	1030.6741     	9702.3882     	3487    
1848 	1031.2020     	9697.4208     	3527    
1849 	1031.7301     	9692.4573     	3483    
1850 	1032.2581     	9687.5001     	3513    
1851 	1032.7863     	9682.5456     	3537    
1852 	1033.3143     	9677.5973     	3552    
1853 	1033.8425     	9672.6530     	3670    
1854 	1034.3707     	9667.7136     	3642    
1855 	1034.8990     	9662.7782     	3654    
1856 	1035.4272     	9657.8490     	3769    
1857 	1035.9557     	9652.9225     	3728    
1858 	1036.4840     	9648.0022     	3734    
1859 	1037.0125     	9643.0858     	3867    
1860 	1037.5409     	9638.1743     	3883    
1861 	1038.0693     	9633.2679     	3969    
1862 	1038.5979     	9628.3653     	4038    
1863 	1039.1265     	9623.4677     	3972    
1864 	1039.6550     	9618.5751     	4088    
1865 	1040.1837     	9613.6864     	4213    
1866 	1040.7124     	9608.8026     	4287    
1867 	1041.2411     	9603.9237     	4121    
1868 	1041.7699     	9599.0487     	4321    
1869 	1042.2987     	9594.1787     	4284    
1870 	1042.8275     	9589.3135     	4368    
1871 	1043.3564     	9584.4522     	4572    
1872 	1043.8854     	9579.5958     	4651    
1873 	1044.4143     	9574.7444     	4710    
1874 	1044.9432     	9569.8978     	4803    
1875 	1045.4723     	9565.0550     	4757    
1876 	1046.0015     	9560.2161     	4794    
1877 	1046.5305     	9555.3831     	5068    
1878 	1047.0597     	9550.5539     	5116    
1879 	1047.5889     	9545.7295     	5304    
1880 	1048.1182     	9540.9090     	5560    
1881 	1048.6473     	9536.0944     	5651    
1882 	1049.1766     	9531.2835     	5695    
1883 	1049.7061     	9526.4764     	5918    
1884 	1050.2355     	9521.6742     	6126    
1885 	1050.7649     	9516.8768     	6336    
1886 	1051.2943     	9512.0842     	6718    
1887 	1051.8239     	9507.2953     	6865    
1888 	1052.3534     	9502.5113     	7172    
1889 	1052.8829     	9497.7321     	7678    
1890 	1053.4126     	9492.9565     	7780    
1891 	1053.9423     	9488.1858     	8176    
1892 	1054.4719     	9483.4199     	8768    
1893 	1055.0017     	9478.6576     	9273    
1894 	1055.5315     	9473.9002     	10078   
1895 	1056.0613     	9469.1475     	10651   
1896 	1056.5912     	9464.3985     	11345   
1897 	1057.1211     	9459.6542     	12028   
1898 	1057.6510     	9454.9147     	12501   
1899 	1058.1809     	9450.1799     	13428   
1900 	1058.7109     	9445.4488     	14368   
1901 	1059.2410     	9440.7225     	14977   
1902 	1059.7711     	9435.9997     	15494   
1903 	1060.3013     	9431.2817     	16477   
1904 	1060.8314     	9426.5684     	17757   
1905 	1061.3616     	9421.8599     	19412   
1906 	1061.8918     	9417.1549     	20893   
1907 	1062.4221     	9412.4546     	22501   
1908 	1062.9525     	9407.7580     	24892   
1909 	1063.4828     	9403.0671     	29000   
1910 	1064.0132     	9398.3798     	36864   
1911 	1064.5437     	9393.6961     	65535   
1912 	1065.0741     	9389.0181     	65535   
1913 	1065.6046     	9384.3437     	65535   
1914 	1066.1353     	9379.6729     	65535   
1915 	1066.6658     	9375.0079     	65535   
1916 	1067.1964     	9370.3464     	65535   
1917 	1067.7271     	9365.6895     	65535   
1918 	1068.2578     	9361.0361     	65535   
1919 	1068.7886     	9356.3874     	65535   
1920 	1069.3193     	9351.7434     	65535   
1921 	1069.8502     	9347.1028     	43061   
1922 	1070.3810     	9342.4679     	30833   
1923 	1070.9120     	9337.8355     	25756   
1924 	1071.4429     	9333.2088     	23364   
1925 	1071.9739     	9328.5855     	21944   
1926 	1072.5049     	9323.9669     	20257   
1927 	1073.0359     	9319.3528     	19228   
1928 	1073.5670     	9314.7422     	19208   
1929 	1074.0981     	9310.1362     	17676   
1930 	1074.6294     	9305.5337     	16112   
1931 	1075.1605     	9300.9367     	15674   
1932 	1075.6918     	9296.3433     	14638   
1933 	1076.2231     	9291.7533     	13529   
1934 	1076.7544     	9287.1690     	12687   
1935 	1077.2858     	9282.5881     	11690   
1936 	1077.8171     	9278.0117     	10509   
1937 	1078.3486     	9273.4388     	10117   
1938 	1078.8801     	9268.8703     	9432    
1939 	1079.4116     	9264.3064     	8925    
1940 	1079.9432     	9259.7459     	8304    
1941 	1080.4749     	9255.1899     	7712    
1942 	1081.0065     	9250.6384     	7366    
1943 	1081.5381     	9246.0914     	7389    
1944 	1082.0698     	9241.5478     	6817    
1945 	1082.6016     	9237.0087     	6693    
1946 	1083.1333     	9232.4740     	6279    
1947 	1083.6652     	9227.9427     	5905    
1948 	1084.1970     	9223.4159     	5952    
1949 	1084.7290     	9218.8924     	5738    
1950 	1085.2609     	9214.3745     	5613    
1951 	1085.7928     	9209.8599     	5385    
1952 	1086.3250     	9205.3487     	5256    
1953 	1086.8569     	9200.8430     	5216    
1954 	1087.3890     	9196.3406     	5021    
1955 	1087.9211     	9191.8427     	4836    
1956 	1088.4534     	9187.3481     	4824    
1957 	1088.9856     	9182.8579     	4636    
1958 	1089.5178     	9178.3721     	4586    
1959 	1090.0500     	9173.8907     	4476    
1960 	1090.5824     	9169.4126     	4350    
1961 	1091.1147     	9164.9389     	4293    
1962 	1091.6472     	9160.4686     	4313    
1963 	1092.1797     	9156.0025     	4385    
1964 	1092.7122     	9151.5409     	4210    
1965 	1093.2446     	9147.0836     	4054    
1966 	1093.7772     	9142.6296     	4033    
1967 	1094.3098     	9138.1799     	4057    
1968 	1094.8424     	9133.7346     	3974    
1969 	1095.3751     	9129.2926     	3993    
1970 	1095.9078     	9124.8549     	4042    
1971 	1096.4406     	9120.4215     	3864    
1972 	1096.9734     	9115.9914     	3898    
1973 	1097.5061     	9111.5666     	3896    
1974 	1098.0391     	9107.1441     	3805    
1975 	1098.5719     	9102.7269     	3759    
1976 	1099.1049     	9098.3130     	3696    
1977 	1099.6378     	9093.9033     	3607    
1978 	1100.1709     	9089.4969     	3591    
1979 	1100.7039     	9085.0958     	3664    
1980 	1101.2369     	9080.6979     	3547    
1981 	1101.7701     	9076.3033     	3590    
1982 	1102.3032     	9071.9140     	3496    
1983 	1102.8364     	9067.5278     	3504    
1984 	1103.3698     	9063.1450     	3426    
1985 	1103.9030     	9058.7673     	3345    
1986 	1104.4363     	9054.3929     	3296    
1987 	1104.9697     	9050.0217     	3376    
1988 	1105.5031     	9045.6557     	3312    
1989 	1106.0365     	9041.2929     	3314    
1990 	1106.5699     	9036.9344     	3320    
1991 	1107.1035     	9032.5790     	3352    
1992 	1107.6371     	9028.2279     	3253    
1993 	1108.1707     	9023.8809     	3228    
1994 	1108.7042     	9019.5381     	3288    
1995 	1109.2379     	9015.1985     	3184    
1996 	1109.7716     	9010.8631     	3288    
1997 	1110.3053     	9006.5318     	3200    
1998 	1110.8391     	9002.2037     	3185    
1999 	1111.3729     	8997.8798     	3220    
2000 	1111.9067     	8993.5600     	3219    
2001 	1112.4407     	8989.2434     	3110    
2002 	1112.9746     	8984.9309     	3084    
2003 	1113.5085     	8980.6226     	3142    
2004 	1114.0426     	8976.3174     	3120    
2005 	1114.5767     	8972.0163     	3156    
2006 	1115.1107     	8967.7194     	3125    
2007 	1115.6448     	8963.4265     	3044    
2008 	1116.1790     	8959.1368     	3100    
2009 	1116.7131     	8954.8512     	3154    
2010 	1117.2473     	8950.5697     	3106    
2011 	1117.7816     	8946.2913     	3123    
2012 	1118.3159     	8942.0170     	3013    
2013 	1118.8503     	8937.7459     	3088    
2014 	1119.3846     	8933.4797     	2982    
2015 	1119.9191     	8929.2167     	3053    
2016 	1120.4535     	8924.9577     	3080    
2017 	1120.9880     	8920.7018     	3013    
2018 	1121.5226     	8916.4500     	3021    
2019 	1122.0571     	8912.2022     	3067    
2020 	1122.5918     	8907.9575     	3070    
2021 	1123.1263     	8903.7178     	2984    
2022 	1123.6610     	8899.4812     	2972    
2023 	1124.1958     	8895.2476     	2993    
2024 	1124.7306     	8891.0181     	2904    
2025 	1125.2654     	8886.7925     	3008    
2026 	1125.8002     	8882.5710     	2946    
2027 	1126.3351     	8878.3526     	2964    
2028 	1126.8700     	8874.1381     	3034    
2029 	1127.4049     	8869.9277     	2974    
2030 	1127.9399     	8865.7203     	3073    
2031 	1128.4749     	8861.5178     	2985    
2032 	1129.0100     	8857.3174     	2913    
2033 	1129.5450     	8853.1219     	2939    
2034 	1130.0802     	8848.9295     	2888    
2035 	1130.6154     	8844.7410     	2976    
2036 	1131.1506     	8840.5555     	2940    
2037 	1131.6858     	8836.3750     	2877    
2038 	1132.2211     	8832.1974     	3045    
2039 	1132.7565     	8828.0229     	3037    
2040 	1133.2917     	8823.8532     	3000    
2041 	1133.8271     	8819.6865     	3034    
2042 	1134.3627     	8815.5228     	2884    
2043 	1134.8981     	8811.3640     	2931    
2044 	1135.4336     	8807.2081     	2932    
2045 	1135.9691     	8803.0562     	2992    
2046 	1136.5048     	8798.9073     	2970    
2047 	1137.0404     	8794.7622     	2945    
2048 	1137.5760     	8790.6211     	2920    
