Pixel	Wavelength(nm)	Wavenumber(1/cm)	Intensity(Counts)
1    	132.6255      	75400.2706    	2710    
2    	133.0654      	75151.0337    	2796    
3    	133.5053      	74903.4048    	2660    
4    	133.9452      	74657.3770    	2686    
5    	134.3853      	74412.9263    	2741    
6    	134.8253      	74170.0377    	2723    
7    	135.2655      	73928.7044    	2720    
8    	135.7056      	73688.9034    	2733    
9    	136.1459      	73450.6202    	2704    
10   	136.5862      	73213.8484    	2715    
11   	137.0265      	72978.5658    	2710    
12   	137.4669      	72744.7582    	2643    
13   	137.9074      	72512.4119    	2613    
14   	138.3479      	72281.5212    	2634    
15   	138.7885      	72052.0724    	2692    
16   	139.2292      	71824.0364    	2653    
17   	139.6698      	71597.4157    	2734    
18   	140.1106      	71372.1896    	2672    
19   	140.5514      	71148.3528    	2669    
20   	140.9922      	70925.8850    	2706    
21   	141.4332      	70704.7735    	2670    
22   	141.8741      	70485.0060    	2636    
23   	142.3152      	70266.5779    	2671    
24   	142.7562      	70049.4769    	2708    
25   	143.1974      	69833.6762    	2703    
26   	143.6386      	69619.1788    	2780    
27   	144.0798      	69405.9656    	2645    
28   	144.5211      	69194.0325    	2703    
29   	144.9625      	68983.3607    	2671    
30   	145.4039      	68773.9389    	2651    
31   	145.8454      	68565.7562    	2680    
32   	146.2869      	68358.8086    	2673    
33   	146.7285      	68153.0782    	2689    
34   	147.1702      	67948.5612    	2674    
35   	147.6118      	67745.2400    	2725    
36   	148.0536      	67543.1041    	2671    
37   	148.4954      	67342.1501    	2648    
38   	148.9373      	67142.3608    	2686    
39   	149.3792      	66943.7261    	2653    
40   	149.8212      	66746.2361    	2700    
41   	150.2632      	66549.8875    	2685    
42   	150.7053      	66354.6707    	2642    
43   	151.1474      	66160.5623    	2727    
44   	151.5896      	65967.5664    	2651    
45   	152.0319      	65775.6734    	2751    
46   	152.4742      	65584.8607    	2667    
47   	152.9166      	65395.1323    	2735    
48   	153.3590      	65206.4791    	2685    
49   	153.8015      	65018.8788    	2697    
50   	154.2440      	64832.3358    	2732    
51   	154.6866      	64646.8409    	2706    
52   	155.1293      	64462.3727    	2668    
53   	155.5719      	64278.9417    	2677    
54   	156.0147      	64096.5203    	2688    
55   	156.4575      	63915.1127    	2600    
56   	156.9004      	63734.7043    	2740    
57   	157.3433      	63555.2868    	2764    
58   	157.7863      	63376.8582    	2727    
59   	158.2293      	63199.4043    	2658    
60   	158.6724      	63022.9231    	2666    
61   	159.1156      	62847.4008    	2671    
62   	159.5588      	62672.8294    	2752    
63   	160.0020      	62499.2073    	2711    
64   	160.4453      	62326.5207    	2709    
65   	160.8887      	62154.7623    	2704    
66   	161.3321      	61983.9303    	2687    
67   	161.7756      	61814.0115    	2729    
68   	162.2192      	61644.9985    	2716    
69   	162.6628      	61476.8900    	2701    
70   	163.1064      	61309.6729    	2671    
71   	163.5501      	61143.3459    	2699    
72   	163.9939      	60977.8905    	2671    
73   	164.4377      	60813.3169    	2657    
74   	164.8815      	60649.6011    	2708    
75   	165.3255      	60486.7478    	2696    
76   	165.7695      	60324.7444    	2755    
77   	166.2135      	60163.5900    	2719    
78   	166.6576      	60003.2723    	2703    
79   	167.1017      	59843.7849    	2734    
80   	167.5459      	59685.1267    	2745    
81   	167.9902      	59527.2860    	2742    
82   	168.4345      	59370.2618    	2698    
83   	168.8789      	59214.0424    	2670    
84   	169.3233      	59058.6216    	2665    
85   	169.7678      	58903.9935    	2687    
86   	170.2123      	58750.1571    	2630    
87   	170.6569      	58597.1064    	2637    
88   	171.1015      	58444.8251    	2682    
89   	171.5462      	58293.3176    	2697    
90   	171.9910      	58142.5781    	2677    
91   	172.4358      	57992.5957    	2648    
92   	172.8807      	57843.3647    	2649    
93   	173.3256      	57694.8793    	2671    
94   	173.7706      	57547.1392    	2642    
95   	174.2156      	57400.1337    	2654    
96   	174.6607      	57253.8624    	2657    
97   	175.1059      	57108.3147    	2644    
98   	175.5510      	56963.4903    	2673    
99   	175.9963      	56819.3739    	2743    
100  	176.4416      	56675.9752    	2639    
101  	176.8870      	56533.2740    	2700    
102  	177.3324      	56391.2750    	2692    
103  	177.7779      	56249.9683    	2625    
104  	178.2234      	56109.3537    	2683    
105  	178.6690      	55969.4211    	2721    
106  	179.1146      	55830.1705    	2671    
107  	179.5603      	55691.5874    	2740    
108  	180.0061      	55553.6812    	2729    
109  	180.4519      	55416.4329    	2674    
110  	180.8978      	55279.8471    	2695    
111  	181.3437      	55143.9189    	2735    
112  	181.7896      	55008.6345    	2712    
113  	182.2357      	54873.9985    	2701    
114  	182.6817      	54740.0063    	2719    
115  	183.1279      	54606.6486    	2730    
116  	183.5741      	54473.9210    	2695    
117  	184.0203      	54341.8235    	2702    
118  	184.4666      	54210.3472    	2685    
119  	184.9130      	54079.4877    	2706    
120  	185.3594      	53949.2451    	2685    
121  	185.8059      	53819.6107    	2734    
122  	186.2524      	53690.5846    	2767    
123  	186.6990      	53562.1581    	2734    
124  	187.1456      	53434.3272    	2712    
125  	187.5923      	53307.0919    	2665    
126  	188.0390      	53180.4439    	2681    
127  	188.4858      	53054.3833    	2653    
128  	188.9327      	52928.9019    	2669    
129  	189.3796      	52803.9956    	2671    
130  	189.8266      	52679.6648    	2695    
131  	190.2736      	52555.9012    	2683    
132  	190.7207      	52432.7052    	2668    
133  	191.1678      	52310.0687    	2717    
134  	191.6150      	52187.9879    	2670    
135  	192.0622      	52066.4632    	2732    
136  	192.5095      	51945.4867    	2679    
137  	192.9568      	51825.0588    	2730    
138  	193.4043      	51705.1716    	2808    
139  	193.8517      	51585.8216    	2642    
140  	194.2992      	51467.0092    	2627    
141  	194.7468      	51348.7268    	2649    
142  	195.1944      	51230.9707    	2695    
143  	195.6421      	51113.7416    	2656    
144  	196.0898      	50997.0358    	2713    
145  	196.5376      	50880.8459    	2661    
146  	196.9855      	50765.1686    	2739    
147  	197.4334      	50650.0004    	2722    
148  	197.8813      	50535.3418    	2674    
149  	198.3293      	50421.1896    	2696    
150  	198.7774      	50307.5326    	2655    
151  	199.2255      	50194.3791    	2713    
152  	199.6737      	50081.7144    	2685    
153  	200.1219      	49969.5429    	2700    
154  	200.5702      	49857.8614    	2728    
155  	201.0185      	49746.6629    	2725    
156  	201.4669      	49635.9443    	2651    
157  	201.9153      	49525.7061    	2738    
158  	202.3638      	49415.9417    	2696    
159  	202.8124      	49306.6478    	2711    
160  	203.2610      	49197.8253    	2685    
161  	203.7097      	49089.4674    	2705    
162  	204.1584      	48981.5747    	2711    
163  	204.6072      	48874.1407    	2640    
164  	205.0560      	48767.1661    	2698    
165  	205.5049      	48660.6443    	2707    
166  	205.9538      	48554.5724    	2642    
167  	206.4028      	48448.9512    	2763    
168  	206.8519      	48343.7743    	2661    
169  	207.3010      	48239.0424    	2661    
170  	207.7501      	48134.7491    	2691    
171  	208.1993      	48030.8917    	2698    
172  	208.6486      	47927.4711    	2745    
173  	209.0979      	47824.4844    	2719    
174  	209.5473      	47721.9219    	2687    
175  	209.9967      	47619.7915    	2639    
176  	210.4462      	47518.0801    	2683    
177  	210.8958      	47416.7920    	2716    
178  	211.3453      	47315.9245    	2727    
179  	211.7950      	47215.4716    	2643    
180  	212.2447      	47115.4308    	2710    
181  	212.6944      	47015.8029    	2723    
182  	213.1443      	46916.5820    	2715    
183  	213.5941      	46817.7657    	2705    
184  	214.0441      	46719.3547    	2726    
185  	214.4940      	46621.3467    	2671    
186  	214.9440      	46523.7358    	2736    
187  	215.3941      	46426.5196    	2714    
188  	215.8443      	46329.6990    	2671    
189  	216.2945      	46233.2683    	2700    
190  	216.7447      	46137.2253    	2731    
191  	217.1950      	46041.5708    	2708    
192  	217.6454      	45946.3024    	2703    
193  	218.0958      	45851.4146    	2730    
194  	218.5462      	45756.9051    	2662    
195  	218.9968      	45662.7749    	2733    
196  	219.4473      	45569.0186    	2698    
197  	219.8980      	45475.6338    	2681    
198  	220.3487      	45382.6216    	2710    
199  	220.7994      	45289.9796    	2771    
200  	221.2502      	45197.7027    	2724    
201  	221.7010      	45105.7886    	2669    
202  	222.1519      	45014.2383    	2650    
203  	222.6029      	44923.0466    	2699    
204  	223.0539      	44832.2144    	2696    
205  	223.5050      	44741.7366    	2640    
206  	223.9561      	44651.6141    	2648    
207  	224.4072      	44561.8418    	2669    
208  	224.8585      	44472.4176    	2667    
209  	225.3098      	44383.3427    	2680    
210  	225.7611      	44294.6119    	2656    
211  	226.2125      	44206.2262    	2755    
212  	226.6639      	44118.1807    	2711    
213  	227.1154      	44030.4763    	2605    
214  	227.5670      	43943.1081    	2694    
215  	228.0186      	43856.0772    	2703    
216  	228.4702      	43769.3786    	2685    
217  	228.9220      	43683.0105    	2640    
218  	229.3737      	43596.9739    	2729    
219  	229.8255      	43511.2639    	2656    
220  	230.2774      	43425.8817    	2735    
221  	230.7294      	43340.8224    	2730    
222  	231.1813      	43256.0872    	2729    
223  	231.6334      	43171.6712    	2739    
224  	232.0855      	43087.5756    	2647    
225  	232.5376      	43003.7957    	2705    
226  	232.9898      	42920.3297    	2777    
227  	233.4421      	42837.1787    	2669    
228  	233.8944      	42754.3409    	2666    
229  	234.3468      	42671.8090    	2699    
230  	234.7992      	42589.5895    	2713    
231  	235.2516      	42507.6752    	2698    
232  	235.7042      	42426.0645    	2719    
233  	236.1568      	42344.7555    	2729    
234  	236.6094      	42263.7522    	2674    
235  	237.0621      	42183.0447    	2686    
236  	237.5148      	42102.6366    	2657    
237  	237.9676      	42022.5264    	2697    
238  	238.4205      	41942.7098    	2734    
239  	238.8734      	41863.1851    	2709    
240  	239.3263      	41783.9534    	2734    
241  	239.7793      	41705.0105    	2685    
242  	240.2324      	41626.3573    	2686    
243  	240.6855      	41547.9924    	2755    
244  	241.1387      	41469.9088    	2671    
245  	241.5919      	41392.1130    	2701    
246  	242.0452      	41314.5954    	2692    
247  	242.4986      	41237.3599    	2751    
248  	242.9519      	41160.4049    	2721    
249  	243.4054      	41083.7262    	2656    
250  	243.8589      	41007.3250    	2645    
251  	244.3124      	40931.1972    	2707    
252  	244.7660      	40855.3414    	2706    
253  	245.2197      	40779.7586    	2700    
254  	245.6734      	40704.4448    	2707    
255  	246.1272      	40629.4011    	2674    
256  	246.5810      	40554.6261    	2703    
257  	247.0349      	40480.1133    	2675    
258  	247.4888      	40405.8689    	2688    
259  	247.9428      	40331.8863    	2661    
260  	248.3968      	40258.1643    	2665    
261  	248.8509      	40184.7015    	2723    
262  	249.3051      	40111.5014    	2727    
263  	249.7593      	40038.5552    	2706    
264  	250.2135      	39965.8666    	2689    
265  	250.6678      	39893.4341    	2696    
266  	251.1222      	39821.2540    	2681    
267  	251.5766      	39749.3274    	2703    
268  	252.0311      	39677.6506    	2738    
269  	252.4856      	39606.2222    	2714    
270  	252.9402      	39535.0434    	2748    
271  	253.3948      	39464.1128    	2689    
272  	253.8495      	39393.4268    	2617    
273  	254.3042      	39322.9842    	2671    
274  	254.7590      	39252.7859    	2686    
275  	255.2138      	39182.8309    	2637    
276  	255.6687      	39113.1154    	2736    
277  	256.1237      	39043.6359    	2702    
278  	256.5787      	38974.4005    	2729    
279  	257.0337      	38905.4009    	2792    
280  	257.4889      	38836.6314    	2739    
281  	257.9440      	38768.1047    	2730    
282  	258.3992      	38699.8056    	2715    
283  	258.8545      	38631.7422    	2757    
284  	259.3098      	38563.9087    	2649    
285  	259.7652      	38496.3039    	2732    
286  	260.2206      	38428.9268    	2766    
287  	260.6761      	38361.7806    	2745    
288  	261.1317      	38294.8597    	2668    
289  	261.5872      	38228.1629    	2702    
290  	262.0429      	38161.6892    	2689    
291  	262.4986      	38095.4418    	2714    
292  	262.9544      	38029.4108    	2732    
293  	263.4102      	37963.6083    	2686    
294  	263.8660      	37898.0200    	2741    
295  	264.3220      	37832.6492    	2694    
296  	264.7779      	37767.4991    	2725    
297  	265.2339      	37702.5644    	2703    
298  	265.6900      	37637.8483    	2654    
299  	266.1461      	37573.3410    	2678    
300  	266.6023      	37509.0502    	2657    
301  	267.0586      	37444.9704    	2685    
302  	267.5148      	37381.1050    	2693    
303  	267.9712      	37317.4443    	2687    
304  	268.4276      	37253.9958    	2723    
305  	268.8840      	37190.7542    	2658    
306  	269.3405      	37127.7186    	2728    
307  	269.7971      	37064.8922    	2720    
308  	270.2537      	37002.2696    	2706    
309  	270.7104      	36939.8500    	2721    
310  	271.1671      	36877.6323    	2715    
311  	271.6238      	36815.6197    	2663    
312  	272.0807      	36753.8070    	2746    
313  	272.5375      	36692.1934    	2723    
314  	272.9945      	36630.7778    	2673    
315  	273.4514      	36569.5634    	2708    
316  	273.9085      	36508.5410    	2752    
317  	274.3656      	36447.7219    	2706    
318  	274.8227      	36387.0930    	2822    
319  	275.2799      	36326.6574    	2700    
320  	275.7372      	36266.4183    	2722    
321  	276.1945      	36206.3706    	2738    
322  	276.6518      	36146.5174    	2719    
323  	277.1093      	36086.8498    	2667    
324  	277.5667      	36027.3750    	2683    
325  	278.0242      	35968.0880    	2674    
326  	278.4818      	35908.9918    	2644    
327  	278.9394      	35850.0817    	2684    
328  	279.3971      	35791.3528    	2607    
329  	279.8548      	35732.8161    	2738    
330  	280.3126      	35674.4588    	2709    
331  	280.7704      	35616.2880    	2698    
332  	281.2283      	35558.2988    	2628    
333  	281.6862      	35500.4905    	2695    
334  	282.1443      	35442.8622    	2744    
335  	282.6023      	35385.4168    	2681    
336  	283.0604      	35328.1498    	2702    
337  	283.5186      	35271.0602    	2670    
338  	283.9767      	35214.1510    	2762    
339  	284.4350      	35157.4139    	2696    
340  	284.8933      	35100.8555    	2751    
341  	285.3517      	35044.4751    	2737    
342  	285.8101      	34988.2643    	2654    
343  	286.2686      	34932.2298    	2674    
344  	286.7271      	34876.3671    	2699    
345  	287.1857      	34820.6753    	2674    
346  	287.6443      	34765.1575    	2695    
347  	288.1030      	34709.8090    	2657    
348  	288.5617      	34654.6292    	2744    
349  	289.0205      	34599.6172    	2713    
350  	289.4794      	34544.7760    	2719    
351  	289.9383      	34490.1011    	2671    
352  	290.3972      	34435.5917    	2730    
353  	290.8562      	34381.2472    	2636    
354  	291.3153      	34327.0703    	2792    
355  	291.7744      	34273.0567    	2640    
356  	292.2336      	34219.2057    	2683    
357  	292.6927      	34165.5201    	2724    
358  	293.1520      	34111.9956    	2611    
359  	293.6113      	34058.6314    	2672    
360  	294.0707      	34005.4269    	2693    
361  	294.5302      	33952.3813    	2742    
362  	294.9896      	33899.4974    	2700    
363  	295.4492      	33846.7711    	2742    
364  	295.9087      	33794.2050    	2718    
365  	296.3684      	33741.7915    	2724    
366  	296.8281      	33689.5369    	2767    
367  	297.2878      	33637.4369    	2688    
368  	297.7476      	33585.4944    	2725    
369  	298.2075      	33533.7018    	2692    
370  	298.6674      	33482.0653    	2670    
371  	299.1273      	33430.5841    	2735    
372  	299.5873      	33379.2509    	2731    
373  	300.0474      	33328.0716    	2660    
374  	300.5075      	33277.0422    	2609    
375  	300.9677      	33226.1622    	2751    
376  	301.4279      	33175.4341    	2683    
377  	301.8881      	33124.8541    	2635    
378  	302.3484      	33074.4213    	2652    
379  	302.8088      	33024.1352    	2719    
380  	303.2693      	32973.9985    	2735    
381  	303.7297      	32924.0071    	2740    
382  	304.1903      	32874.1605    	2745    
383  	304.6508      	32824.4614    	2738    
384  	305.1115      	32774.9024    	2686    
385  	305.5722      	32725.4896    	2618    
386  	306.0329      	32676.2223    	2621    
387  	306.4937      	32627.0934    	2701    
388  	306.9546      	32578.1087    	2755    
389  	307.4155      	32529.2645    	2688    
390  	307.8764      	32480.5633    	2730    
391  	308.3375      	32431.9980    	2801    
392  	308.7985      	32383.5746    	2666    
393  	309.2596      	32335.2924    	2784    
394  	309.7208      	32287.1443    	2678    
395  	310.1820      	32239.1363    	2642    
396  	310.6433      	32191.2645    	2711    
397  	311.1046      	32143.5284    	2735    
398  	311.5660      	32095.9305    	2717    
399  	312.0274      	32048.4670    	2697    
400  	312.4889      	32001.1375    	2773    
401  	312.9504      	31953.9445    	2653    
402  	313.4120      	31906.8811    	2678    
403  	313.8737      	31859.9531    	2674    
404  	314.3353      	31813.1598    	2690    
405  	314.7971      	31766.4945    	2673    
406  	315.2589      	31719.9629    	2686    
407  	315.7207      	31673.5613    	2710    
408  	316.1826      	31627.2921    	2705    
409  	316.6446      	31581.1488    	2643    
410  	317.1066      	31535.1370    	2695    
411  	317.5686      	31489.2560    	2673    
412  	318.0308      	31443.4992    	2618    
413  	318.4929      	31397.8722    	2738    
414  	318.9551      	31352.3715    	2696    
415  	319.4174      	31306.9964    	2709    
416  	319.8797      	31261.7495    	2723    
417  	320.3421      	31216.6273    	2720    
418  	320.8045      	31171.6292    	2633    
419  	321.2670      	31126.7577    	2672    
420  	321.7295      	31082.0092    	2774    
421  	322.1921      	31037.3834    	2730    
422  	322.6548      	30992.8797    	2653    
423  	323.1174      	30948.5005    	2708    
424  	323.5802      	30904.2424    	2678    
425  	324.0430      	30860.1049    	2725    
426  	324.5058      	30816.0903    	2721    
427  	324.9687      	30772.1925    	2657    
428  	325.4317      	30728.4167    	2579    
429  	325.8947      	30684.7624    	2727    
430  	326.3577      	30641.2262    	2739    
431  	326.8208      	30597.8077    	2747    
432  	327.2840      	30554.5063    	2726    
433  	327.7472      	30511.3216    	2687    
434  	328.2104      	30468.2560    	2683    
435  	328.6738      	30425.3062    	2769    
436  	329.1371      	30382.4744    	2653    
437  	329.6006      	30339.7547    	2738    
438  	330.0640      	30297.1521    	2649    
439  	330.5275      	30254.6662    	2665    
440  	330.9911      	30212.2909    	2731    
441  	331.4547      	30170.0314    	2687    
442  	331.9184      	30127.8844    	2689    
443  	332.3821      	30085.8523    	2711    
444  	332.8459      	30043.9290    	2734    
445  	333.3098      	30002.1196    	2626    
446  	333.7737      	29960.4237    	2619    
447  	334.2376      	29918.8353    	2695    
448  	334.7016      	29877.3595    	2753    
449  	335.1656      	29835.9931    	2682    
450  	335.6297      	29794.7384    	2657    
451  	336.0939      	29753.5922    	2650    
452  	336.5581      	29712.5541    	2671    
453  	337.0223      	29671.6236    	2677    
454  	337.4866      	29630.8032    	2711    
455  	337.9510      	29590.0895    	2721    
456  	338.4154      	29549.4822    	2717    
457  	338.8799      	29508.9836    	2674    
458  	339.3444      	29468.5879    	2736    
459  	339.8089      	29428.3026    	2690    
460  	340.2736      	29388.1194    	2778    
461  	340.7382      	29348.0432    	2727    
462  	341.2029      	29308.0709    	2727    
463  	341.6677      	29268.2021    	2725    
464  	342.1325      	29228.4390    	2764    
465  	342.5974      	29188.7786    	2674    
466  	343.0623      	29149.2205    	2682    
467  	343.5273      	29109.7643    	2683    
468  	343.9924      	29070.4122    	2679    
469  	344.4575      	29031.1612    	2678    
470  	344.9226      	28992.0135    	2677    
471  	345.3878      	28952.9635    	2649    
472  	345.8530      	28914.0161    	2665    
473  	346.3183      	28875.1708    	2652    
474  	346.7837      	28836.4220    	2675    
475  	347.2491      	28797.7746    	2719    
476  	347.7145      	28759.2257    	2714    
477  	348.1800      	28720.7772    	2688    
478  	348.6455      	28682.4264    	2694    
479  	349.1111      	28644.1729    	2705    
480  	349.5768      	28606.0163    	2696    
481  	350.0425      	28567.9587    	2619    
482  	350.5083      	28529.9973    	2643    
483  	350.9741      	28492.1317    	2746    
484  	351.4399      	28454.3640    	2784    
485  	351.9059      	28416.6913    	2675    
486  	352.3718      	28379.1134    	2685    
487  	352.8378      	28341.6322    	2695    
488  	353.3039      	28304.2451    	2672    
489  	353.7700      	28266.9515    	2686    
490  	354.2362      	28229.7513    	2622    
491  	354.7024      	28192.6464    	2738    
492  	355.1687      	28155.6341    	2670    
493  	355.6350      	28118.7165    	2683    
494  	356.1014      	28081.8883    	2686    
495  	356.5678      	28045.1540    	2744    
496  	357.0343      	28008.5133    	2679    
497  	357.5009      	27971.9611    	2715    
498  	357.9674      	27935.5018    	2678    
499  	358.4341      	27899.1326    	2664    
500  	358.9008      	27862.8557    	2732    
501  	359.3675      	27826.6683    	2706    
502  	359.8343      	27790.5700    	2682    
503  	360.3011      	27754.5605    	2657    
504  	360.7680      	27718.6419    	2618    
505  	361.2350      	27682.8115    	2645    
506  	361.7020      	27647.0712    	2651    
507  	362.1690      	27611.4162    	2663    
508  	362.6361      	27575.8506    	2722    
509  	363.1033      	27540.3743    	2757    
510  	363.5705      	27504.9822    	2651    
511  	364.0378      	27469.6786    	2685    
512  	364.5051      	27434.4610    	2713    
513  	364.9724      	27399.3312    	2757    
514  	365.4398      	27364.2867    	2689    
515  	365.9073      	27329.3272    	2634    
516  	366.3748      	27294.4547    	2696    
517  	366.8424      	27259.6642    	2731    
518  	367.3100      	27224.9623    	2727    
519  	367.7776      	27190.3419    	2695    
520  	368.2454      	27155.8071    	2705    
521  	368.7131      	27121.3555    	2658    
522  	369.1810      	27086.9867    	2723    
523  	369.6488      	27052.7027    	2784    
524  	370.1168      	27018.5008    	2690    
525  	370.5847      	26984.3810    	2679    
526  	371.0528      	26950.3449    	2729    
527  	371.5208      	26916.3902    	2675    
528  	371.9890      	26882.5166    	2757    
529  	372.4572      	26848.7258    	2631    
530  	372.9254      	26815.0156    	2641    
531  	373.3937      	26781.3855    	2678    
532  	373.8620      	26747.8375    	2771    
533  	374.3304      	26714.3669    	2684    
534  	374.7988      	26680.9799    	2725    
535  	375.2673      	26647.6698    	2721    
536  	375.7359      	26614.4406    	2721    
537  	376.2045      	26581.2898    	2786    
538  	376.6731      	26548.2194    	2690    
539  	377.1418      	26515.2248    	2717    
540  	377.6105      	26482.3120    	2653    
541  	378.0793      	26449.4745    	2714    
542  	378.5482      	26416.7161    	2660    
543  	379.0171      	26384.0346    	2699    
544  	379.4861      	26351.4295    	2689    
545  	379.9550      	26318.9029    	2683    
546  	380.4241      	26286.4522    	2773    
547  	380.8932      	26254.0773    	2634    
548  	381.3624      	26221.7799    	2707    
549  	381.8316      	26189.5576    	2718    
550  	382.3008      	26157.4103    	2615    
551  	382.7701      	26125.3398    	2766    
552  	383.2395      	26093.3436    	2721    
553  	383.7089      	26061.4215    	2709    
554  	384.1784      	26029.5754    	2719    
555  	384.6479      	25997.8029    	2635    
556  	385.1175      	25966.1038    	2705    
557  	385.5871      	25934.4798    	2731    
558  	386.0567      	25902.9287    	2667    
559  	386.5265      	25871.4501    	2769    
560  	386.9962      	25840.0439    	2737    
561  	387.4661      	25808.7118    	2673    
562  	387.9359      	25777.4536    	2711    
563  	388.4059      	25746.2649    	2693    
564  	388.8758      	25715.1496    	2741    
565  	389.3459      	25684.1054    	2746    
566  	389.8159      	25653.1341    	2762    
567  	390.2860      	25622.2333    	2693    
568  	390.7562      	25591.4029    	2694    
569  	391.2265      	25560.6426    	2735    
570  	391.6967      	25529.9542    	2704    
571  	392.1671      	25499.3374    	2737    
572  	392.6375      	25468.7880    	2724    
573  	393.1079      	25438.3097    	2633    
574  	393.5784      	25407.9004    	2697    
575  	394.0489      	25377.5617    	2699    
576  	394.5195      	25347.2895    	2704    
577  	394.9901      	25317.0894    	2705    
578  	395.4608      	25286.9554    	2611    
579  	395.9315      	25256.8911    	2686    
580  	396.4023      	25226.8942    	2662    
581  	396.8732      	25196.9666    	2689    
582  	397.3441      	25167.1042    	2699    
583  	397.8150      	25137.3124    	2704    
584  	398.2860      	25107.5853    	2741    
585  	398.7570      	25077.9265    	2654    
586  	399.2281      	25048.3339    	2679    
587  	399.6993      	25018.8092    	2673    
588  	400.1705      	24989.3482    	2673    
589  	400.6417      	24959.9565    	2650    
590  	401.1130      	24930.6282    	2677    
591  	401.5844      	24901.3669    	2692    
592  	402.0558      	24872.1703    	2606    
593  	402.5272      	24843.0403    	2683    
594  	402.9987      	24813.9747    	2687    
595  	403.4703      	24784.9733    	2618    
596  	403.9419      	24756.0358    	2693    
597  	404.4135      	24727.1640    	2628    
598  	404.8853      	24698.3557    	2681    
599  	405.3570      	24669.6125    	2786    
600  	405.8288      	24640.9326    	2700    
601  	406.3007      	24612.3155    	2663    
602  	406.7726      	24583.7611    	2713    
603  	407.2445      	24555.2711    	2764    
604  	407.7165      	24526.8451    	2687    
605  	408.1886      	24498.4795    	2713    
606  	408.6607      	24470.1775    	2738    
607  	409.1329      	24441.9372    	2682    
608  	409.6051      	24413.7602    	2696    
609  	410.0773      	24385.6444    	2650    
610  	410.5497      	24357.5898    	2742    
611  	411.0220      	24329.5977    	2679    
612  	411.4944      	24301.6664    	2635    
613  	411.9669      	24273.7955    	2713    
614  	412.4394      	24245.9867    	2651    
615  	412.9120      	24218.2379    	2762    
616  	413.3846      	24190.5490    	2669    
617  	413.8572      	24162.9216    	2661    
618  	414.3300      	24135.3536    	2698    
619  	414.8027      	24107.8449    	2716    
620  	415.2755      	24080.3971    	2709    
621  	415.7484      	24053.0082    	2738    
622  	416.2213      	24025.6780    	2698    
623  	416.6943      	23998.4081    	2673    
624  	417.1673      	23971.1965    	2666    
625  	417.6404      	23944.0431    	2692    
626  	418.1135      	23916.9493    	2646    
627  	418.5867      	23889.9133    	2691    
628  	419.0599      	23862.9367    	2686    
629  	419.5332      	23836.0174    	2744    
630  	420.0065      	23809.1553    	2670    
631  	420.4799      	23782.3503    	2575    
632  	420.9533      	23755.6038    	2734    
633  	421.4268      	23728.9140    	2724    
634  	421.9003      	23702.2823    	2693    
635  	422.3739      	23675.7070    	2647    
636  	422.8475      	23649.1877    	2729    
637  	423.3212      	23622.7261    	2702    
638  	423.7949      	23596.3203    	2685    
639  	424.2687      	23569.9700    	2716    
640  	424.7425      	23543.6769    	2768    
641  	425.2164      	23517.4389    	2721    
642  	425.6903      	23491.2560    	2727    
643  	426.1643      	23465.1297    	2730    
644  	426.6383      	23439.0580    	2726    
645  	427.1124      	23413.0409    	2726    
646  	427.5865      	23387.0798    	2694    
647  	428.0607      	23361.1729    	2683    
648  	428.5349      	23335.3200    	2754    
649  	429.0092      	23309.5225    	2741    
650  	429.4836      	23283.7788    	2739    
651  	429.9579      	23258.0902    	2726    
652  	430.4323      	23232.4549    	2722    
653  	430.9068      	23206.8728    	2744    
654  	431.3813      	23181.3454    	2715    
655  	431.8559      	23155.8707    	2665    
656  	432.3306      	23130.4487    	2688    
657  	432.8053      	23105.0792    	2756    
658  	433.2800      	23079.7637    	2671    
659  	433.7548      	23054.5020    	2685    
660  	434.2296      	23029.2923    	2720    
661  	434.7045      	23004.1344    	2707    
662  	435.1794      	22979.0282    	2724    
663  	435.6544      	22953.9751    	2769    
664  	436.1294      	22928.9734    	2704    
665  	436.6045      	22904.0245    	2694    
666  	437.0797      	22879.1251    	2690    
667  	437.5548      	22854.2797    	2691    
668  	438.0301      	22829.4834    	2758    
669  	438.5053      	22804.7394    	2774    
670  	438.9807      	22780.0457    	2779    
671  	439.4561      	22755.4039    	2718    
672  	439.9315      	22730.8121    	2637    
673  	440.4070      	22706.2703    	2688    
674  	440.8825      	22681.7799    	2666    
675  	441.3581      	22657.3391    	2713    
676  	441.8337      	22632.9494    	2692    
677  	442.3094      	22608.6090    	2755    
678  	442.7851      	22584.3178    	2670    
679  	443.2609      	22560.0756    	2650    
680  	443.7368      	22535.8839    	2644    
681  	444.2126      	22511.7409    	2711    
682  	444.6886      	22487.6480    	2771    
683  	445.1646      	22463.6036    	2641    
684  	445.6406      	22439.6074    	2722    
685  	446.1167      	22415.6610    	2702    
686  	446.5928      	22391.7625    	2717    
687  	447.0690      	22367.9134    	2636    
688  	447.5452      	22344.1105    	2617    
689  	448.0215      	22320.3582    	2698    
690  	448.4978      	22296.6518    	2694    
691  	448.9742      	22272.9941    	2735    
692  	449.4507      	22249.3836    	2771    
693  	449.9271      	22225.8216    	2715    
694  	450.4037      	22202.3065    	2748    
695  	450.8802      	22178.8380    	2778    
696  	451.3569      	22155.4176    	2712    
697  	451.8336      	22132.0436    	2733    
698  	452.3103      	22108.7174    	2727    
699  	452.7870      	22085.4374    	2607    
700  	453.2639      	22062.2033    	2680    
701  	453.7408      	22039.0151    	2667    
702  	454.2177      	22015.8742    	2658    
703  	454.6947      	21992.7803    	2655    
704  	455.1717      	21969.7303    	2747    
705  	455.6488      	21946.7272    	2763    
706  	456.1259      	21923.7707    	2779    
707  	456.6031      	21900.8593    	2747    
708  	457.0803      	21877.9928    	2746    
709  	457.5576      	21855.1711    	2781    
710  	458.0349      	21832.3955    	2710    
711  	458.5123      	21809.6644    	2700    
712  	458.9897      	21786.9791    	2687    
713  	459.4672      	21764.3381    	2750    
714  	459.9447      	21741.7426    	2701    
715  	460.4223      	21719.1897    	2741    
716  	460.9000      	21696.6821    	2737    
717  	461.3776      	21674.2197    	2666    
718  	461.8553      	21651.8009    	2672    
719  	462.3331      	21629.4255    	2674    
720  	462.8109      	21607.0949    	2735    
721  	463.2888      	21584.8076    	2767    
722  	463.7668      	21562.5633    	2750    
723  	464.2447      	21540.3634    	2712    
724  	464.7227      	21518.2064    	2735    
725  	465.2008      	21496.0935    	2661    
726  	465.6790      	21474.0217    	2731    
727  	466.1571      	21451.9953    	2767    
728  	466.6353      	21430.0097    	2726    
729  	467.1136      	21408.0678    	2757    
730  	467.5919      	21386.1694    	2677    
731  	468.0703      	21364.3130    	2701    
732  	468.5487      	21342.4984    	2616    
733  	469.0272      	21320.7255    	2701    
734  	469.5057      	21298.9956    	2705    
735  	469.9843      	21277.3072    	2691    
736  	470.4629      	21255.6616    	2682    
737  	470.9416      	21234.0572    	2730    
738  	471.4203      	21212.4953    	2768    
739  	471.8990      	21190.9730    	2648    
740  	472.3779      	21169.4930    	2637    
741  	472.8567      	21148.0552    	2718    
742  	473.3356      	21126.6580    	2700    
743  	473.8146      	21105.3013    	2699    
744  	474.2936      	21083.9864    	2754    
745  	474.7727      	21062.7118    	2723    
746  	475.2518      	21041.4787    	2648    
747  	475.7310      	21020.2844    	2678    
748  	476.2101      	20999.1327    	2658    
749  	476.6894      	20978.0195    	2734    
750  	477.1687      	20956.9474    	2731    
751  	477.6481      	20935.9162    	2702    
752  	478.1275      	20914.9232    	2686    
753  	478.6069      	20893.9723    	2694    
754  	479.0865      	20873.0593    	2699    
755  	479.5660      	20852.1868    	2728    
756  	480.0456      	20831.3533    	2727    
757  	480.5253      	20810.5601    	2671    
758  	481.0050      	20789.8058    	2756    
759  	481.4847      	20769.0915    	2731    
760  	481.9645      	20748.4145    	2629    
761  	482.4444      	20727.7786    	2669    
762  	482.9243      	20707.1798    	2665    
763  	483.4042      	20686.6206    	2696    
764  	483.8842      	20666.1008    	2707    
765  	484.3643      	20645.6179    	2793    
766  	484.8444      	20625.1755    	2724    
767  	485.3245      	20604.7696    	2788    
768  	485.8047      	20584.4028    	2707    
769  	486.2850      	20564.0736    	2691    
770  	486.7653      	20543.7833    	2641    
771  	487.2456      	20523.5304    	2695    
772  	487.7260      	20503.3161    	2731    
773  	488.2064      	20483.1390    	2739    
774  	488.6869      	20462.9991    	2717    
775  	489.1674      	20442.8974    	2667    
776  	489.6480      	20422.8327    	2743    
777  	490.1287      	20402.8047    	2733    
778  	490.6094      	20382.8147    	2730    
779  	491.0901      	20362.8614    	2710    
780  	491.5709      	20342.9458    	2691    
781  	492.0517      	20323.0666    	2707    
782  	492.5326      	20303.2236    	2755    
783  	493.0135      	20283.4182    	2707    
784  	493.4945      	20263.6488    	2704    
785  	493.9756      	20243.9167    	2624    
786  	494.4566      	20224.2205    	2720    
787  	494.9378      	20204.5601    	2666    
788  	495.4189      	20184.9366    	2751    
789  	495.9002      	20165.3487    	2703    
790  	496.3814      	20145.7976    	2754    
791  	496.8628      	20126.2819    	2706    
792  	497.3441      	20106.8014    	2737    
793  	497.8256      	20087.3574    	2746    
794  	498.3070      	20067.9486    	2704    
795  	498.7885      	20048.5759    	2725    
796  	499.2701      	20029.2382    	2670    
797  	499.7517      	20009.9354    	2716    
798  	500.2334      	19990.6684    	2737    
799  	500.7151      	19971.4361    	2765    
800  	501.1969      	19952.2384    	2816    
801  	501.6787      	19933.0763    	2717    
802  	502.1606      	19913.9497    	2714    
803  	502.6425      	19894.8562    	2636    
804  	503.1245      	19875.7981    	2738    
805  	503.6064      	19856.7753    	2641    
806  	504.0885      	19837.7864    	2742    
807  	504.5706      	19818.8314    	2708    
808  	505.0528      	19799.9114    	2745    
809  	505.5350      	19781.0251    	2733    
810  	506.0172      	19762.1736    	2656    
811  	506.4995      	19743.3545    	2718    
812  	506.9819      	19724.5711    	2766    
813  	507.4643      	19705.8211    	2735    
814  	507.9467      	19687.1043    	2725    
815  	508.4292      	19668.4207    	2684    
816  	508.9118      	19649.7714    	2707    
817  	509.3943      	19631.1562    	2706    
818  	509.8770      	19612.5727    	2648    
819  	510.3597      	19594.0232    	2678    
820  	510.8424      	19575.5076    	2747    
821  	511.3252      	19557.0246    	2635    
822  	511.8081      	19538.5741    	2710    
823  	512.2910      	19520.1573    	2690    
824  	512.7739      	19501.7740    	2671    
825  	513.2569      	19483.4206    	2648    
826  	513.7399      	19465.1018    	2739    
827  	514.2230      	19446.8173    	2738    
828  	514.7061      	19428.5626    	2719    
829  	515.1893      	19410.3421    	2794    
830  	515.6725      	19392.1512    	2717    
831  	516.1558      	19373.9944    	2714    
832  	516.6391      	19355.8715    	2730    
833  	517.1225      	19337.7779    	2713    
834  	517.6059      	19319.7181    	2695    
835  	518.0894      	19301.6897    	2791    
836  	518.5729      	19283.6927    	2717    
837  	519.0565      	19265.7270    	2793    
838  	519.5401      	19247.7924    	2768    
839  	520.0237      	19229.8912    	2795    
840  	520.5074      	19212.0210    	2726    
841  	520.9912      	19194.1818    	2726    
842  	521.4750      	19176.3734    	2741    
843  	521.9589      	19158.5980    	2762    
844  	522.4428      	19140.8510    	2721    
845  	522.9268      	19123.1369    	2778    
846  	523.4108      	19105.4534    	2762    
847  	523.8948      	19087.8003    	2715    
848  	524.3789      	19070.1798    	2736    
849  	524.8630      	19052.5895    	2754    
850  	525.3472      	19035.0295    	2750    
851  	525.8315      	19017.4996    	2838    
852  	526.3158      	18999.9998    	2774    
853  	526.8001      	18982.5321    	2751    
854  	527.2845      	18965.0921    	2776    
855  	527.7690      	18947.6842    	2786    
856  	528.2535      	18930.3060    	2794    
857  	528.7380      	18912.9596    	2842    
858  	529.2226      	18895.6407    	2844    
859  	529.7072      	18878.3534    	2942    
860  	530.1919      	18861.0956    	3031    
861  	530.6766      	18843.8671    	3240    
862  	531.1614      	18826.6701    	3518    
863  	531.6462      	18809.5001    	4071    
864  	532.1311      	18792.3614    	5839    
865  	532.6160      	18775.2517    	35412   
866  	533.1010      	18758.1711    	65384   
867  	533.5860      	18741.1214    	40514   
868  	534.0711      	18724.0985    	7000    
869  	534.5562      	18707.1065    	3371    
870  	535.0414      	18690.1431    	3070    
871  	535.5266      	18673.2105    	2916    
872  	536.0118      	18656.3043    	2890    
873  	536.4971      	18639.4286    	2787    
874  	536.9825      	18622.5814    	2836    
875  	537.4679      	18605.7625    	2759    
876  	537.9534      	18588.9718    	2799    
877  	538.4388      	18572.2114    	2783    
878  	538.9244      	18555.4770    	2686    
879  	539.4100      	18538.7727    	2816    
880  	539.8956      	18522.0984    	2756    
881  	540.3813      	18505.4500    	2671    
882  	540.8671      	18488.8314    	2755    
883  	541.3529      	18472.2385    	2707    
884  	541.8387      	18455.6754    	2709    
885  	542.3246      	18439.1419    	2723    
886  	542.8105      	18422.6339    	2713    
887  	543.2965      	18406.1555    	2706    
888  	543.7825      	18389.7044    	2822    
889  	544.2686      	18373.2806    	2783    
890  	544.7548      	18356.8841    	2756    
891  	545.2409      	18340.5168    	2706    
892  	545.7272      	18324.1746    	2687    
893  	546.2134      	18307.8615    	2754    
894  	546.6998      	18291.5753    	2758    
895  	547.1861      	18275.3182    	2735    
896  	547.6725      	18259.0858    	2670    
897  	548.1590      	18242.8822    	2727    
898  	548.6455      	18226.7053    	2742    
899  	549.1321      	18210.5551    	2671    
900  	549.6187      	18194.4335    	2717    
901  	550.1053      	18178.3363    	2696    
902  	550.5920      	18162.2676    	2721    
903  	551.0788      	18146.2253    	2766    
904  	551.5656      	18130.2093    	2740    
905  	552.0524      	18114.2215    	2695    
906  	552.5393      	18098.2599    	2708    
907  	553.0262      	18082.3245    	2739    
908  	553.5132      	18066.4150    	2695    
909  	554.0003      	18050.5316    	2722    
910  	554.4874      	18034.6760    	2783    
911  	554.9745      	18018.8443    	2731    
912  	555.4617      	18003.0404    	2727    
913  	555.9489      	17987.2642    	2748    
914  	556.4362      	17971.5117    	2693    
915  	556.9235      	17955.7867    	2691    
916  	557.4109      	17940.0873    	2695    
917  	557.8983      	17924.4133    	2680    
918  	558.3858      	17908.7648    	2733    
919  	558.8733      	17893.1435    	2640    
920  	559.3609      	17877.5456    	2735    
921  	559.8485      	17861.9748    	2719    
922  	560.3362      	17846.4292    	2712    
923  	560.8239      	17830.9106    	2695    
924  	561.3116      	17815.4152    	2730    
925  	561.7994      	17799.9466    	2648    
926  	562.2873      	17784.5029    	2683    
927  	562.7751      	17769.0860    	2683    
928  	563.2631      	17753.6920    	2683    
929  	563.7511      	17738.3246    	2735    
930  	564.2391      	17722.9819    	2674    
931  	564.7272      	17707.6638    	2718    
932  	565.2154      	17692.3702    	2733    
933  	565.7036      	17677.1031    	2685    
934  	566.1918      	17661.8603    	2692    
935  	566.6801      	17646.6419    	2666    
936  	567.1684      	17631.4479    	2652    
937  	567.6568      	17616.2780    	2709    
938  	568.1452      	17601.1343    	2667    
939  	568.6337      	17586.0147    	2751    
940  	569.1222      	17570.9191    	2700    
941  	569.6108      	17555.8476    	2642    
942  	570.0994      	17540.8018    	2694    
943  	570.5880      	17525.7800    	2671    
944  	571.0768      	17510.7802    	2744    
945  	571.5655      	17495.8079    	2745    
946  	572.0543      	17480.8574    	2712    
947  	572.5432      	17465.9324    	2719    
948  	573.0320      	17451.0311    	2693    
949  	573.5210      	17436.1533    	2675    
950  	574.0100      	17421.2990    	2719    
951  	574.4990      	17406.4700    	2746    
952  	574.9882      	17391.6625    	2700    
953  	575.4773      	17376.8802    	2771    
954  	575.9664      	17362.1230    	2705    
955  	576.4557      	17347.3871    	2723    
956  	576.9449      	17332.6763    	2729    
957  	577.4343      	17317.9867    	2640    
958  	577.9236      	17303.3239    	2729    
959  	578.4131      	17288.6822    	2786    
960  	578.9026      	17274.0634    	2698    
961  	579.3921      	17259.4693    	2827    
962  	579.8817      	17244.8981    	2644    
963  	580.3713      	17230.3496    	2754    
964  	580.8609      	17215.8257    	2726    
965  	581.3506      	17201.3226    	2657    
966  	581.8404      	17186.8439    	2705    
967  	582.3302      	17172.3878    	2722    
968  	582.8200      	17157.9559    	2711    
969  	583.3099      	17143.5448    	2686    
970  	583.7999      	17129.1578    	2700    
971  	584.2899      	17114.7931    	2692    
972  	584.7799      	17100.4507    	2693    
973  	585.2700      	17086.1324    	2706    
974  	585.7601      	17071.8345    	2725    
975  	586.2503      	17057.5604    	2662    
976  	586.7405      	17043.3102    	2653    
977  	587.2308      	17029.0803    	2740    
978  	587.7211      	17014.8723    	2798    
979  	588.2115      	17000.6881    	2731    
980  	588.7019      	16986.5257    	2694    
981  	589.1923      	16972.3868    	2653    
982  	589.6829      	16958.2680    	2689    
983  	590.1734      	16944.1727    	2665    
984  	590.6640      	16930.0990    	2687    
985  	591.1547      	16916.0469    	2693    
986  	591.6454      	16902.0164    	2663    
987  	592.1361      	16888.0091    	2674    
988  	592.6269      	16874.0233    	2746    
989  	593.1177      	16860.0589    	2675    
990  	593.6086      	16846.1159    	2747    
991  	594.0995      	16832.1959    	2686    
992  	594.5906      	16818.2955    	2663    
993  	595.0816      	16804.4180    	2689    
994  	595.5727      	16790.5616    	2680    
995  	596.0638      	16776.7281    	2650    
996  	596.5549      	16762.9157    	2750    
997  	597.0462      	16749.1225    	2733    
998  	597.5374      	16735.3537    	2699    
999  	598.0287      	16721.6042    	2737    
1000 	598.5201      	16707.8772    	2699    
1001 	599.0115      	16694.1693    	2695    
1002 	599.5030      	16680.4839    	2659    
1003 	599.9944      	16666.8210    	2703    
1004 	600.4860      	16653.1770    	2743    
1005 	600.9776      	16639.5553    	2736    
1006 	601.4692      	16625.9542    	2819    
1007 	601.9609      	16612.3736    	2703    
1008 	602.4527      	16598.8135    	2742    
1009 	602.9445      	16585.2756    	2725    
1010 	603.4363      	16571.7580    	2721    
1011 	603.9282      	16558.2608    	2758    
1012 	604.4201      	16544.7839    	2682    
1013 	604.9120      	16531.3289    	2706    
1014 	605.4041      	16517.8940    	2746    
1015 	605.8961      	16504.4794    	2778    
1016 	606.3882      	16491.0849    	2757    
1017 	606.8804      	16477.7120    	2704    
1018 	607.3726      	16464.3576    	2725    
1019 	607.8649      	16451.0248    	2731    
1020 	608.3572      	16437.7119    	2730    
1021 	608.8495      	16424.4205    	2738    
1022 	609.3419      	16411.1490    	2757    
1023 	609.8344      	16397.8956    	2735    
1024 	610.3268      	16384.6652    	2710    
1025 	610.8193      	16371.4529    	2723    
1026 	611.3120      	16358.2603    	2711    
1027 	611.8046      	16345.0889    	2762    
1028 	612.2972      	16331.9371    	2681    
1029 	612.7899      	16318.8064    	2618    
1030 	613.2827      	16305.6935    	2670    
1031 	613.7755      	16292.6018    	2680    
1032 	614.2684      	16279.5294    	2670    
1033 	614.7613      	16266.4763    	2680    
1034 	615.2542      	16253.4442    	2721    
1035 	615.7473      	16240.4297    	2716    
1036 	616.2403      	16227.4361    	2704    
1037 	616.7334      	16214.4616    	2724    
1038 	617.2265      	16201.5078    	2687    
1039 	617.7197      	16188.5716    	2710    
1040 	618.2130      	16175.6559    	2774    
1041 	618.7062      	16162.7593    	2676    
1042 	619.1995      	16149.8832    	2725    
1043 	619.6929      	16137.0245    	2746    
1044 	620.1863      	16124.1862    	2683    
1045 	620.6798      	16111.3667    	2694    
1046 	621.1733      	16098.5660    	2726    
1047 	621.6669      	16085.7856    	2751    
1048 	622.1605      	16073.0240    	2689    
1049 	622.6541      	16060.2809    	2732    
1050 	623.1478      	16047.5566    	2724    
1051 	623.6416      	16034.8507    	2741    
1052 	624.1354      	16022.1650    	2739    
1053 	624.6292      	16009.4978    	2702    
1054 	625.1231      	15996.8491    	2623    
1055 	625.6171      	15984.2187    	2668    
1056 	626.1110      	15971.6083    	2709    
1057 	626.6050      	15959.0162    	2699    
1058 	627.0991      	15946.4424    	2673    
1059 	627.5933      	15933.8868    	2698    
1060 	628.0874      	15921.3510    	2772    
1061 	628.5816      	15908.8334    	2639    
1062 	629.0759      	15896.3339    	2634    
1063 	629.5702      	15883.8524    	2711    
1064 	630.0645      	15871.3906    	2661    
1065 	630.5590      	15858.9452    	2646    
1066 	631.0534      	15846.5193    	2722    
1067 	631.5479      	15834.1129    	2731    
1068 	632.0424      	15821.7229    	2679    
1069 	632.5370      	15809.3522    	2735    
1070 	633.0316      	15796.9993    	2671    
1071 	633.5263      	15784.6642    	2663    
1072 	634.0210      	15772.3483    	2711    
1073 	634.5158      	15760.0486    	2692    
1074 	635.0106      	15747.7681    	2648    
1075 	635.5055      	15735.5052    	2608    
1076 	636.0004      	15723.2614    	2761    
1077 	636.4953      	15711.0351    	2702    
1078 	636.9904      	15698.8248    	2743    
1079 	637.4854      	15686.6350    	2775    
1080 	637.9805      	15674.4610    	2704    
1081 	638.4756      	15662.3060    	2662    
1082 	638.9708      	15650.1668    	2713    
1083 	639.4660      	15638.0479    	2737    
1084 	639.9613      	15625.9448    	2733    
1085 	640.4567      	15613.8589    	2761    
1086 	640.9520      	15601.7917    	2723    
1087 	641.4474      	15589.7416    	2640    
1088 	641.9429      	15577.7102    	2672    
1089 	642.4384      	15565.6943    	2674    
1090 	642.9340      	15553.6970    	2700    
1091 	643.4296      	15541.7167    	2723    
1092 	643.9252      	15529.7533    	2779    
1093 	644.4209      	15517.8084    	2758    
1094 	644.9166      	15505.8803    	2719    
1095 	645.4124      	15493.9691    	2645    
1096 	645.9083      	15482.0747    	2690    
1097 	646.4042      	15470.1971    	2713    
1098 	646.9001      	15458.3377    	2640    
1099 	647.3961      	15446.4951    	2669    
1100 	647.8921      	15434.6691    	2651    
1101 	648.3881      	15422.8612    	2729    
1102 	648.8842      	15411.0699    	2846    
1103 	649.3804      	15399.2952    	2748    
1104 	649.8766      	15387.5370    	2735    
1105 	650.3729      	15375.7953    	2676    
1106 	650.8691      	15364.0715    	2699    
1107 	651.3655      	15352.3641    	2691    
1108 	651.8619      	15340.6731    	2686    
1109 	652.3583      	15328.9985    	2652    
1110 	652.8548      	15317.3417    	2741    
1111 	653.3513      	15305.7011    	2738    
1112 	653.8479      	15294.0768    	2739    
1113 	654.3445      	15282.4701    	2719    
1114 	654.8412      	15270.8782    	2651    
1115 	655.3379      	15259.3039    	2711    
1116 	655.8347      	15247.7456    	2725    
1117 	656.3314      	15236.2049    	2703    
1118 	656.8283      	15224.6788    	2737    
1119 	657.3252      	15213.1701    	2744    
1120 	657.8221      	15201.6774    	2703    
1121 	658.3191      	15190.2020    	2693    
1122 	658.8162      	15178.7412    	2701    
1123 	659.3132      	15167.2976    	2703    
1124 	659.8104      	15155.8699    	2646    
1125 	660.3075      	15144.4593    	2736    
1126 	660.8047      	15133.0632    	2735    
1127 	661.3020      	15121.6841    	2716    
1128 	661.7993      	15110.3208    	2686    
1129 	662.2966      	15098.9746    	2734    
1130 	662.7941      	15087.6426    	2760    
1131 	663.2915      	15076.3276    	2744    
1132 	663.7890      	15065.0282    	2699    
1133 	664.2865      	15053.7457    	2656    
1134 	664.7841      	15042.4773    	2681    
1135 	665.2817      	15031.2258    	2742    
1136 	665.7794      	15019.9897    	2679    
1137 	666.2771      	15008.7704    	2741    
1138 	666.7749      	14997.5651    	2740    
1139 	667.2727      	14986.3765    	2691    
1140 	667.7706      	14975.2033    	2671    
1141 	668.2684      	14964.0466    	2716    
1142 	668.7664      	14952.9039    	2751    
1143 	669.2644      	14941.7778    	2727    
1144 	669.7625      	14930.6668    	2648    
1145 	670.2605      	14919.5724    	2715    
1146 	670.7587      	14908.4917    	2712    
1147 	671.2568      	14897.4274    	2754    
1148 	671.7551      	14886.3782    	2714    
1149 	672.2533      	14875.3454    	2695    
1150 	672.7516      	14864.3263    	2681    
1151 	673.2500      	14853.3234    	2739    
1152 	673.7484      	14842.3355    	2715    
1153 	674.2469      	14831.3625    	2719    
1154 	674.7454      	14820.4057    	2724    
1155 	675.2439      	14809.4637    	2738    
1156 	675.7425      	14798.5366    	2721    
1157 	676.2411      	14787.6255    	2621    
1158 	676.7398      	14776.7279    	2693    
1159 	677.2385      	14765.8463    	2596    
1160 	677.7373      	14754.9794    	2683    
1161 	678.2361      	14744.1285    	2724    
1162 	678.7350      	14733.2909    	2740    
1163 	679.2339      	14722.4692    	2618    
1164 	679.7328      	14711.6621    	2743    
1165 	680.2318      	14700.8708    	2728    
1166 	680.7309      	14690.0928    	2755    
1167 	681.2300      	14679.3305    	2741    
1168 	681.7291      	14668.5826    	2726    
1169 	682.2283      	14657.8505    	2735    
1170 	682.7275      	14647.1314    	2734    
1171 	683.2268      	14636.4281    	2803    
1172 	683.7261      	14625.7403    	2681    
1173 	684.2255      	14615.0655    	2795    
1174 	684.7249      	14604.4064    	2727    
1175 	685.2243      	14593.7614    	2688    
1176 	685.7238      	14583.1307    	2701    
1177 	686.2234      	14572.5141    	2699    
1178 	686.7230      	14561.9130    	2720    
1179 	687.2226      	14551.3260    	2753    
1180 	687.7223      	14540.7531    	2805    
1181 	688.2220      	14530.1955    	2712    
1182 	688.7218      	14519.6507    	2641    
1183 	689.2216      	14509.1212    	2638    
1184 	689.7214      	14498.6070    	2780    
1185 	690.2214      	14488.1054    	2761    
1186 	690.7213      	14477.6190    	2712    
1187 	691.2213      	14467.1465    	2703    
1188 	691.7214      	14456.6879    	2689    
1189 	692.2214      	14446.2443    	2723    
1190 	692.7216      	14435.8146    	2729    
1191 	693.2217      	14425.3987    	2704    
1192 	693.7220      	14414.9965    	2713    
1193 	694.2222      	14404.6093    	2678    
1194 	694.7226      	14394.2346    	2666    
1195 	695.2230      	14383.8747    	2734    
1196 	695.7233      	14373.5298    	2755    
1197 	696.2238      	14363.1973    	2744    
1198 	696.7243      	14352.8795    	2682    
1199 	697.2249      	14342.5754    	2795    
1200 	697.7254      	14332.2860    	2688    
1201 	698.2261      	14322.0088    	2762    
1202 	698.7267      	14311.7464    	2702    
1203 	699.2275      	14301.4975    	2680    
1204 	699.7282      	14291.2632    	2758    
1205 	700.2290      	14281.0423    	2720    
1206 	700.7299      	14270.8335    	2709    
1207 	701.2308      	14260.6405    	2730    
1208 	701.7318      	14250.4597    	2646    
1209 	702.2327      	14240.2933    	2760    
1210 	702.7338      	14230.1402    	2683    
1211 	703.2349      	14220.0003    	2691    
1212 	703.7360      	14209.8737    	2656    
1213 	704.2372      	14199.7615    	2692    
1214 	704.7384      	14189.6624    	2738    
1215 	705.2396      	14179.5776    	2714    
1216 	705.7410      	14169.5048    	2721    
1217 	706.2423      	14159.4462    	2676    
1218 	706.7437      	14149.4007    	2769    
1219 	707.2452      	14139.3682    	2699    
1220 	707.7466      	14129.3500    	2659    
1221 	708.2482      	14119.3447    	2725    
1222 	708.7498      	14109.3523    	2792    
1223 	709.2514      	14099.3729    	2695    
1224 	709.7531      	14089.4075    	2747    
1225 	710.2548      	14079.4551    	2648    
1226 	710.7565      	14069.5155    	2729    
1227 	711.2584      	14059.5887    	2738    
1228 	711.7602      	14049.6759    	2621    
1229 	712.2621      	14039.7758    	2720    
1230 	712.7640      	14029.8885    	2723    
1231 	713.2660      	14020.0151    	2704    
1232 	713.7681      	14010.1533    	2755    
1233 	714.2701      	14000.3052    	2712    
1234 	714.7722      	13990.4710    	2698    
1235 	715.2744      	13980.6483    	2786    
1236 	715.7766      	13970.8393    	2735    
1237 	716.2789      	13961.0429    	2667    
1238 	716.7812      	13951.2590    	2712    
1239 	717.2835      	13941.4888    	2690    
1240 	717.7859      	13931.7311    	2715    
1241 	718.2883      	13921.9859    	2719    
1242 	718.7908      	13912.2531    	2737    
1243 	719.2933      	13902.5339    	2737    
1244 	719.7959      	13892.8271    	2755    
1245 	720.2985      	13883.1327    	2773    
1246 	720.8012      	13873.4507    	2715    
1247 	721.3039      	13863.7821    	2735    
1248 	721.8066      	13854.1258    	2698    
1249 	722.3094      	13844.4818    	2671    
1250 	722.8123      	13834.8512    	2692    
1251 	723.3151      	13825.2328    	2631    
1252 	723.8181      	13815.6267    	2793    
1253 	724.3210      	13806.0327    	2648    
1254 	724.8240      	13796.4520    	2660    
1255 	725.3271      	13786.8823    	2688    
1256 	725.8302      	13777.3270    	2760    
1257 	726.3334      	13767.7826    	2809    
1258 	726.8365      	13758.2515    	2707    
1259 	727.3398      	13748.7312    	2728    
1260 	727.8431      	13739.2252    	2650    
1261 	728.3464      	13729.7301    	2656    
1262 	728.8498      	13720.2481    	2747    
1263 	729.3532      	13710.7781    	2726    
1264 	729.8567      	13701.3199    	2742    
1265 	730.3602      	13691.8748    	2765    
1266 	730.8638      	13682.4404    	2775    
1267 	731.3674      	13673.0191    	2698    
1268 	731.8710      	13663.6106    	2695    
1269 	732.3747      	13654.2129    	2667    
1270 	732.8784      	13644.8281    	2649    
1271 	733.3822      	13635.4550    	2701    
1272 	733.8860      	13626.0948    	2722    
1273 	734.3899      	13616.7451    	2716    
1274 	734.8938      	13607.4083    	2717    
1275 	735.3977      	13598.0843    	2720    
1276 	735.9017      	13588.7708    	2687    
1277 	736.4058      	13579.4701    	2689    
1278 	736.9099      	13570.1809    	2675    
1279 	737.4140      	13560.9033    	2677    
1280 	737.9182      	13551.6385    	2703    
1281 	738.4224      	13542.3851    	2707    
1282 	738.9266      	13533.1432    	2754    
1283 	739.4310      	13523.9129    	2695    
1284 	739.9353      	13514.6951    	2735    
1285 	740.4397      	13505.4887    	2702    
1286 	740.9442      	13496.2938    	2729    
1287 	741.4487      	13487.1103    	2708    
1288 	741.9532      	13477.9393    	2734    
1289 	742.4578      	13468.7796    	2603    
1290 	742.9624      	13459.6313    	2673    
1291 	743.4670      	13450.4954    	2718    
1292 	743.9717      	13441.3708    	2743    
1293 	744.4765      	13432.2574    	2671    
1294 	744.9813      	13423.1553    	2751    
1295 	745.4861      	13414.0655    	2701    
1296 	745.9910      	13404.9870    	2745    
1297 	746.4960      	13395.9196    	2823    
1298 	747.0010      	13386.8634    	2742    
1299 	747.5060      	13377.8194    	2677    
1300 	748.0110      	13368.7865    	2702    
1301 	748.5161      	13359.7658    	2683    
1302 	749.0213      	13350.7552    	2643    
1303 	749.5265      	13341.7566    	2671    
1304 	750.0317      	13332.7691    	2637    
1305 	750.5370      	13323.7926    	2694    
1306 	751.0424      	13314.8282    	2668    
1307 	751.5477      	13305.8748    	2578    
1308 	752.0532      	13296.9323    	2654    
1309 	752.5586      	13288.0019    	2667    
1310 	753.0641      	13279.0823    	2609    
1311 	753.5696      	13270.1737    	2600    
1312 	754.0753      	13261.2759    	2710    
1313 	754.5809      	13252.3889    	2628    
1314 	755.0866      	13243.5139    	2618    
1315 	755.5923      	13234.6497    	2725    
1316 	756.0981      	13225.7973    	2692    
1317 	756.6039      	13216.9557    	2713    
1318 	757.1097      	13208.1249    	2672    
1319 	757.6157      	13199.3047    	2670    
1320 	758.1216      	13190.4953    	2722    
1321 	758.6276      	13181.6977    	2690    
1322 	759.1337      	13172.9107    	2676    
1323 	759.6397      	13164.1354    	2687    
1324 	760.1459      	13155.3697    	2719    
1325 	760.6520      	13146.6157    	2680    
1326 	761.1583      	13137.8722    	2718    
1327 	761.6645      	13129.1404    	2699    
1328 	762.1708      	13120.4191    	2692    
1329 	762.6771      	13111.7083    	2706    
1330 	763.1835      	13103.0081    	2687    
1331 	763.6900      	13094.3183    	2637    
1332 	764.1965      	13085.6401    	2695    
1333 	764.7030      	13076.9723    	2618    
1334 	765.2095      	13068.3160    	2716    
1335 	765.7161      	13059.6701    	2712    
1336 	766.2228      	13051.0336    	2698    
1337 	766.7295      	13042.4095    	2680    
1338 	767.2363      	13033.7947    	2634    
1339 	767.7430      	13025.1913    	2680    
1340 	768.2499      	13016.5982    	2622    
1341 	768.7567      	13008.0165    	2747    
1342 	769.2637      	12999.4440    	2778    
1343 	769.7706      	12990.8828    	2736    
1344 	770.2776      	12982.3318    	2701    
1345 	770.7847      	12973.7921    	2759    
1346 	771.2917      	12965.2625    	2728    
1347 	771.7989      	12956.7432    	2700    
1348 	772.3061      	12948.2340    	2729    
1349 	772.8133      	12939.7360    	2721    
1350 	773.3206      	12931.2481    	2700    
1351 	773.8279      	12922.7704    	2746    
1352 	774.3353      	12914.3027    	2686    
1353 	774.8427      	12905.8461    	2624    
1354 	775.3501      	12897.3995    	2718    
1355 	775.8576      	12888.9630    	2735    
1356 	776.3651      	12880.5376    	2716    
1357 	776.8727      	12872.1221    	2722    
1358 	777.3803      	12863.7166    	2742    
1359 	777.8880      	12855.3211    	2747    
1360 	778.3957      	12846.9365    	2718    
1361 	778.9034      	12838.5618    	2628    
1362 	779.4113      	12830.1971    	2741    
1363 	779.9191      	12821.8432    	2658    
1364 	780.4269      	12813.4992    	2703    
1365 	780.9349      	12805.1651    	2725    
1366 	781.4429      	12796.8408    	2661    
1367 	781.9509      	12788.5273    	2613    
1368 	782.4589      	12780.2236    	2695    
1369 	782.9670      	12771.9297    	2723    
1370 	783.4752      	12763.6465    	2746    
1371 	783.9833      	12755.3731    	2681    
1372 	784.4916      	12747.1095    	2721    
1373 	784.9999      	12738.8555    	2682    
1374 	785.5082      	12730.6122    	2695    
1375 	786.0165      	12722.3786    	2717    
1376 	786.5250      	12714.1546    	2722    
1377 	787.0334      	12705.9413    	2711    
1378 	787.5419      	12697.7376    	2767    
1379 	788.0504      	12689.5435    	2758    
1380 	788.5590      	12681.3590    	2731    
1381 	789.0676      	12673.1850    	2742    
1382 	789.5763      	12665.0206    	2639    
1383 	790.0850      	12656.8657    	2675    
1384 	790.5938      	12648.7213    	2645    
1385 	791.1026      	12640.5854    	2663    
1386 	791.6114      	12632.4610    	2704    
1387 	792.1203      	12624.3451    	2687    
1388 	792.6292      	12616.2395    	2728    
1389 	793.1382      	12608.1435    	2745    
1390 	793.6472      	12600.0568    	2726    
1391 	794.1563      	12591.9795    	2716    
1392 	794.6654      	12583.9126    	2708    
1393 	795.1746      	12575.8550    	2781    
1394 	795.6837      	12567.8078    	2795    
1395 	796.1929      	12559.7699    	2761    
1396 	796.7022      	12551.7413    	2705    
1397 	797.2115      	12543.7220    	2729    
1398 	797.7209      	12535.7119    	2729    
1399 	798.2303      	12527.7121    	2768    
1400 	798.7398      	12519.7216    	2663    
1401 	799.2493      	12511.7412    	2748    
1402 	799.7588      	12503.7701    	2715    
1403 	800.2684      	12495.8081    	2683    
1404 	800.7780      	12487.8553    	2738    
1405 	801.2877      	12479.9127    	2680    
1406 	801.7974      	12471.9782    	2729    
1407 	802.3071      	12464.0548    	2650    
1408 	802.8170      	12456.1395    	2659    
1409 	803.3268      	12448.2343    	2687    
1410 	803.8367      	12440.3382    	2660    
1411 	804.3466      	12432.4511    	2754    
1412 	804.8566      	12424.5740    	2777    
1413 	805.3666      	12416.7060    	2735    
1414 	805.8766      	12408.8470    	2743    
1415 	806.3867      	12400.9979    	2679    
1416 	806.8969      	12393.1569    	2683    
1417 	807.4071      	12385.3257    	2690    
1418 	807.9173      	12377.5045    	2660    
1419 	808.4276      	12369.6913    	2641    
1420 	808.9379      	12361.8879    	2640    
1421 	809.4482      	12354.0944    	2681    
1422 	809.9587      	12346.3088    	2677    
1423 	810.4691      	12338.5331    	2720    
1424 	810.9796      	12330.7662    	2719    
1425 	811.4901      	12323.0091    	2738    
1426 	812.0007      	12315.2598    	2670    
1427 	812.5114      	12307.5203    	2702    
1428 	813.0220      	12299.7906    	2640    
1429 	813.5327      	12292.0687    	2684    
1430 	814.0435      	12284.3565    	2715    
1431 	814.5543      	12276.6530    	2670    
1432 	815.0651      	12268.9592    	2670    
1433 	815.5759      	12261.2741    	2693    
1434 	816.0869      	12253.5977    	2727    
1435 	816.5978      	12245.9300    	2761    
1436 	817.1088      	12238.2719    	2673    
1437 	817.6199      	12230.6225    	2744    
1438 	818.1310      	12222.9817    	2701    
1439 	818.6422      	12215.3495    	2624    
1440 	819.1533      	12207.7269    	2711    
1441 	819.6646      	12200.1128    	2721    
1442 	820.1758      	12192.5083    	2618    
1443 	820.6871      	12184.9114    	2692    
1444 	821.1985      	12177.3240    	2779    
1445 	821.7098      	12169.7460    	2738    
1446 	822.2213      	12162.1756    	2712    
1447 	822.7328      	12154.6147    	2711    
1448 	823.2443      	12147.0622    	2715    
1449 	823.7559      	12139.5191    	2756    
1450 	824.2675      	12131.9845    	2628    
1451 	824.7791      	12124.4583    	2675    
1452 	825.2908      	12116.9406    	2683    
1453 	825.8026      	12109.4322    	2692    
1454 	826.3143      	12101.9322    	2686    
1455 	826.8262      	12094.4406    	2744    
1456 	827.3380      	12086.9582    	2679    
1457 	827.8500      	12079.4834    	2686    
1458 	828.3619      	12072.0186    	2686    
1459 	828.8739      	12064.5613    	2752    
1460 	829.3859      	12057.1132    	2734    
1461 	829.8980      	12049.6734    	2762    
1462 	830.4102      	12042.2419    	2742    
1463 	830.9223      	12034.8196    	2671    
1464 	831.4345      	12027.4055    	2661    
1465 	831.9468      	12019.9997    	2761    
1466 	832.4590      	12012.6030    	2640    
1467 	832.9714      	12005.2145    	2843    
1468 	833.4838      	11997.8342    	2764    
1469 	833.9962      	11990.4621    	2792    
1470 	834.5087      	11983.0990    	2674    
1471 	835.0212      	11975.7441    	2665    
1472 	835.5338      	11968.3974    	2680    
1473 	836.0463      	11961.0597    	2773    
1474 	836.5590      	11953.7301    	2811    
1475 	837.0717      	11946.4086    	2731    
1476 	837.5844      	11939.0960    	2684    
1477 	838.0972      	11931.7907    	2668    
1478 	838.6099      	11924.4952    	2684    
1479 	839.1228      	11917.2068    	2731    
1480 	839.6357      	11909.9274    	2705    
1481 	840.1486      	11902.6560    	2625    
1482 	840.6616      	11895.3926    	2695    
1483 	841.1746      	11888.1380    	2692    
1484 	841.6877      	11880.8915    	2634    
1485 	842.2008      	11873.6529    	2686    
1486 	842.7139      	11866.4231    	2708    
1487 	843.2272      	11859.2004    	2683    
1488 	843.7404      	11851.9873    	2733    
1489 	844.2537      	11844.7813    	2808    
1490 	844.7670      	11837.5841    	2745    
1491 	845.2803      	11830.3947    	2761    
1492 	845.7938      	11823.2132    	2660    
1493 	846.3072      	11816.0405    	2737    
1494 	846.8207      	11808.8755    	2742    
1495 	847.3342      	11801.7185    	2738    
1496 	847.8478      	11794.5700    	2715    
1497 	848.3615      	11787.4286    	2711    
1498 	848.8751      	11780.2966    	2711    
1499 	849.3888      	11773.1716    	2711    
1500 	849.9025      	11766.0551    	2705    
1501 	850.4163      	11758.9465    	2668    
1502 	850.9302      	11751.8456    	2657    
1503 	851.4440      	11744.7532    	2679    
1504 	851.9579      	11737.6686    	2683    
1505 	852.4719      	11730.5916    	2680    
1506 	852.9859      	11723.5232    	2700    
1507 	853.4999      	11716.4625    	2716    
1508 	854.0140      	11709.4094    	2697    
1509 	854.5281      	11702.3648    	2739    
1510 	855.0423      	11695.3279    	2633    
1511 	855.5565      	11688.2985    	2767    
1512 	856.0708      	11681.2768    	2719    
1513 	856.5851      	11674.2635    	2741    
1514 	857.0994      	11667.2578    	2708    
1515 	857.6138      	11660.2597    	2709    
1516 	858.1282      	11653.2700    	2725    
1517 	858.6427      	11646.2878    	2714    
1518 	859.1572      	11639.3131    	2802    
1519 	859.6718      	11632.3468    	2775    
1520 	860.1863      	11625.3880    	2719    
1521 	860.7010      	11618.4368    	2767    
1522 	861.2157      	11611.4929    	2713    
1523 	861.7304      	11604.5574    	2637    
1524 	862.2452      	11597.6294    	2682    
1525 	862.7599      	11590.7096    	2653    
1526 	863.2748      	11583.7972    	2712    
1527 	863.7897      	11576.8923    	2768    
1528 	864.3046      	11569.9948    	2728    
1529 	864.8196      	11563.1055    	2660    
1530 	865.3346      	11556.2235    	2707    
1531 	865.8497      	11549.3490    	2715    
1532 	866.3648      	11542.4818    	2718    
1533 	866.8799      	11535.6227    	2720    
1534 	867.3951      	11528.7719    	2808    
1535 	867.9103      	11521.9275    	2746    
1536 	868.4256      	11515.0912    	2654    
1537 	868.9409      	11508.2623    	2685    
1538 	869.4563      	11501.4406    	2731    
1539 	869.9717      	11494.6270    	2650    
1540 	870.4871      	11487.8207    	2696    
1541 	871.0026      	11481.0225    	2743    
1542 	871.5181      	11474.2306    	2729    
1543 	872.0337      	11467.4468    	2695    
1544 	872.5493      	11460.6711    	2674    
1545 	873.0649      	11453.9017    	2660    
1546 	873.5806      	11447.1403    	2674    
1547 	874.0964      	11440.3861    	2763    
1548 	874.6121      	11433.6398    	2696    
1549 	875.1279      	11426.9008    	2717    
1550 	875.6438      	11420.1688    	2700    
1551 	876.1597      	11413.4440    	2686    
1552 	876.6757      	11406.7271    	2649    
1553 	877.1917      	11400.0173    	2660    
1554 	877.7076      	11393.3154    	2693    
1555 	878.2238      	11386.6198    	2735    
1556 	878.7399      	11379.9321    	2672    
1557 	879.2560      	11373.2522    	2741    
1558 	879.7722      	11366.5785    	2773    
1559 	880.2885      	11359.9127    	2737    
1560 	880.8047      	11353.2547    	2691    
1561 	881.3210      	11346.6030    	2674    
1562 	881.8374      	11339.9590    	2665    
1563 	882.3538      	11333.3220    	2746    
1564 	882.8702      	11326.6928    	2721    
1565 	883.3867      	11320.0706    	2689    
1566 	883.9033      	11313.4553    	2676    
1567 	884.4198      	11306.8477    	2744    
1568 	884.9365      	11300.2463    	2655    
1569 	885.4531      	11293.6526    	2723    
1570 	885.9698      	11287.0666    	2738    
1571 	886.4865      	11280.4875    	2719    
1572 	887.0033      	11273.9153    	2662    
1573 	887.5201      	11267.3499    	2737    
1574 	888.0370      	11260.7922    	2727    
1575 	888.5539      	11254.2414    	2695    
1576 	889.0709      	11247.6974    	2726    
1577 	889.5878      	11241.1610    	2723    
1578 	890.1049      	11234.6314    	2734    
1579 	890.6219      	11228.1086    	2683    
1580 	891.1391      	11221.5927    	2747    
1581 	891.6563      	11215.0843    	2659    
1582 	892.1735      	11208.5827    	2773    
1583 	892.6907      	11202.0886    	2693    
1584 	893.2079      	11195.6012    	2752    
1585 	893.7253      	11189.1207    	2711    
1586 	894.2427      	11182.6468    	2720    
1587 	894.7601      	11176.1804    	2773    
1588 	895.2775      	11169.7208    	2718    
1589 	895.7950      	11163.2686    	2678    
1590 	896.3126      	11156.8223    	2714    
1591 	896.8301      	11150.3843    	2718    
1592 	897.3477      	11143.9521    	2775    
1593 	897.8654      	11137.5274    	2728    
1594 	898.3831      	11131.1093    	2711    
1595 	898.9008      	11124.6979    	2719    
1596 	899.4186      	11118.2938    	2687    
1597 	899.9364      	11111.8963    	2659    
1598 	900.4543      	11105.5055    	2710    
1599 	900.9722      	11099.1212    	2700    
1600 	901.4902      	11092.7443    	2708    
1601 	902.0081      	11086.3747    	2606    
1602 	902.5262      	11080.0109    	2710    
1603 	903.0443      	11073.6545    	2740    
1604 	903.5624      	11067.3045    	2769    
1605 	904.0805      	11060.9619    	2637    
1606 	904.5987      	11054.6257    	2732    
1607 	905.1169      	11048.2961    	2693    
1608 	905.6353      	11041.9730    	2708    
1609 	906.1536      	11035.6571    	2723    
1610 	906.6719      	11029.3477    	2708    
1611 	907.1904      	11023.0447    	2750    
1612 	907.7088      	11016.7490    	2680    
1613 	908.2273      	11010.4597    	2779    
1614 	908.7458      	11004.1775    	2716    
1615 	909.2644      	10997.9011    	2734    
1616 	909.7830      	10991.6318    	2681    
1617 	910.3016      	10985.3697    	2779    
1618 	910.8203      	10979.1140    	2746    
1619 	911.3391      	10972.8646    	2729    
1620 	911.8578      	10966.6216    	2720    
1621 	912.3767      	10960.3850    	2739    
1622 	912.8956      	10954.1555    	2718    
1623 	913.4144      	10947.9330    	2654    
1624 	913.9334      	10941.7162    	2761    
1625 	914.4524      	10935.5064    	2719    
1626 	914.9714      	10929.3037    	2700    
1627 	915.4905      	10923.1065    	2694    
1628 	916.0096      	10916.9164    	2737    
1629 	916.5287      	10910.7325    	2733    
1630 	917.0479      	10904.5557    	2698    
1631 	917.5671      	10898.3851    	2693    
1632 	918.0864      	10892.2207    	2735    
1633 	918.6058      	10886.0626    	2715    
1634 	919.1251      	10879.9115    	2692    
1635 	919.6445      	10873.7666    	2669    
1636 	920.1639      	10867.6286    	2671    
1637 	920.6834      	10861.4969    	2695    
1638 	921.2029      	10855.3713    	2635    
1639 	921.7225      	10849.2519    	2766    
1640 	922.2421      	10843.1395    	2707    
1641 	922.7618      	10837.0332    	2773    
1642 	923.2814      	10830.9337    	2742    
1643 	923.8012      	10824.8397    	2686    
1644 	924.3210      	10818.7525    	2706    
1645 	924.8408      	10812.6722    	2734    
1646 	925.3606      	10806.5980    	2701    
1647 	925.8805      	10800.5300    	2710    
1648 	926.4005      	10794.4680    	2745    
1649 	926.9204      	10788.4128    	2700    
1650 	927.4404      	10782.3637    	2751    
1651 	927.9605      	10776.3206    	2744    
1652 	928.4806      	10770.2844    	2726    
1653 	929.0007      	10764.2542    	2674    
1654 	929.5209      	10758.2300    	2750    
1655 	930.0411      	10752.2126    	2708    
1656 	930.5614      	10746.2011    	2757    
1657 	931.0817      	10740.1958    	2707    
1658 	931.6021      	10734.1971    	2708    
1659 	932.1224      	10728.2044    	2702    
1660 	932.6429      	10722.2177    	2703    
1661 	933.1633      	10716.2376    	2730    
1662 	933.6838      	10710.2636    	2759    
1663 	934.2044      	10704.2955    	2691    
1664 	934.7250      	10698.3340    	2721    
1665 	935.2456      	10692.3785    	2632    
1666 	935.7663      	10686.4289    	2706    
1667 	936.2870      	10680.4859    	2686    
1668 	936.8077      	10674.5489    	2702    
1669 	937.3286      	10668.6177    	2706    
1670 	937.8494      	10662.6925    	2657    
1671 	938.3703      	10656.7738    	2716    
1672 	938.8912      	10650.8616    	2718    
1673 	939.4122      	10644.9547    	2712    
1674 	939.9332      	10639.0543    	2688    
1675 	940.4542      	10633.1598    	2720    
1676 	940.9753      	10627.2717    	2697    
1677 	941.4964      	10621.3895    	2760    
1678 	942.0176      	10615.5132    	2729    
1679 	942.5388      	10609.6433    	2711    
1680 	943.0600      	10603.7792    	2630    
1681 	943.5813      	10597.9209    	2726    
1682 	944.1027      	10592.0684    	2751    
1683 	944.6240      	10586.2224    	2725    
1684 	945.1454      	10580.3821    	2706    
1685 	945.6669      	10574.5483    	2661    
1686 	946.1884      	10568.7202    	2691    
1687 	946.7099      	10562.8979    	2720    
1688 	947.2314      	10557.0820    	2738    
1689 	947.7531      	10551.2717    	2748    
1690 	948.2747      	10545.4673    	2689    
1691 	948.7964      	10539.6685    	2672    
1692 	949.3182      	10533.8760    	2660    
1693 	949.8400      	10528.0893    	2621    
1694 	950.3618      	10522.3089    	2701    
1695 	950.8836      	10516.5342    	2707    
1696 	951.4055      	10510.7652    	2756    
1697 	951.9274      	10505.0025    	2693    
1698 	952.4495      	10499.2447    	2711    
1699 	952.9714      	10493.4940    	2715    
1700 	953.4935      	10487.7481    	2697    
1701 	954.0156      	10482.0086    	2757    
1702 	954.5378      	10476.2747    	2705    
1703 	955.0599      	10470.5470    	2758    
1704 	955.5822      	10464.8250    	2715    
1705 	956.1044      	10459.1085    	2704    
1706 	956.6268      	10453.3976    	2724    
1707 	957.1491      	10447.6930    	2676    
1708 	957.6714      	10441.9945    	2692    
1709 	958.1939      	10436.3010    	2680    
1710 	958.7164      	10430.6136    	2729    
1711 	959.2389      	10424.9318    	2711    
1712 	959.7614      	10419.2561    	2641    
1713 	960.2840      	10413.5860    	2692    
1714 	960.8066      	10407.9214    	2684    
1715 	961.3293      	10402.2623    	2675    
1716 	961.8521      	10396.6093    	2675    
1717 	962.3748      	10390.9625    	2710    
1718 	962.8976      	10385.3205    	2751    
1719 	963.4204      	10379.6846    	2792    
1720 	963.9433      	10374.0542    	2706    
1721 	964.4662      	10368.4299    	2729    
1722 	964.9891      	10362.8110    	2670    
1723 	965.5121      	10357.1975    	2731    
1724 	966.0352      	10351.5901    	2711    
1725 	966.5582      	10345.9882    	2731    
1726 	967.0814      	10340.3916    	2755    
1727 	967.6046      	10334.8005    	2742    
1728 	968.1277      	10329.2154    	2649    
1729 	968.6509      	10323.6363    	2707    
1730 	969.1743      	10318.0619    	2698    
1731 	969.6976      	10312.4936    	2726    
1732 	970.2209      	10306.9313    	2719    
1733 	970.7443      	10301.3737    	2735    
1734 	971.2678      	10295.8220    	2648    
1735 	971.7912      	10290.2764    	2731    
1736 	972.3148      	10284.7354    	2708    
1737 	972.8383      	10279.2004    	2700    
1738 	973.3619      	10273.6707    	2698    
1739 	973.8856      	10268.1469    	2745    
1740 	974.4092      	10262.6285    	2686    
1741 	974.9329      	10257.1159    	2705    
1742 	975.4567      	10251.6080    	2658    
1743 	975.9805      	10246.1060    	2742    
1744 	976.5043      	10240.6100    	2721    
1745 	977.0283      	10235.1185    	2696    
1746 	977.5522      	10229.6329    	2690    
1747 	978.0761      	10224.1532    	2711    
1748 	978.6001      	10218.6787    	2711    
1749 	979.1241      	10213.2095    	2707    
1750 	979.6483      	10207.7454    	2681    
1751 	980.1724      	10202.2872    	2723    
1752 	980.6965      	10196.8343    	2729    
1753 	981.2208      	10191.3864    	2701    
1754 	981.7450      	10185.9445    	2718    
1755 	982.2693      	10180.5077    	2731    
1756 	982.7936      	10175.0767    	2711    
1757 	983.3180      	10169.6502    	2687    
1758 	983.8423      	10164.2301    	2711    
1759 	984.3668      	10158.8146    	2736    
1760 	984.8913      	10153.4048    	2731    
1761 	985.4158      	10148.0001    	2736    
1762 	985.9404      	10142.6012    	2661    
1763 	986.4650      	10137.2074    	2671    
1764 	986.9896      	10131.8188    	2727    
1765 	987.5143      	10126.4352    	2644    
1766 	988.0391      	10121.0573    	2703    
1767 	988.5638      	10115.6846    	2690    
1768 	989.0886      	10110.3175    	2741    
1769 	989.6135      	10104.9555    	2756    
1770 	990.1384      	10099.5985    	2734    
1771 	990.6633      	10094.2473    	2679    
1772 	991.1882      	10088.9011    	2713    
1773 	991.7133      	10083.5599    	2677    
1774 	992.2383      	10078.2243    	2672    
1775 	992.7634      	10072.8938    	2753    
1776 	993.2885      	10067.5684    	2702    
1777 	993.8137      	10062.2485    	2741    
1778 	994.3389      	10056.9336    	2663    
1779 	994.8641      	10051.6238    	2720    
1780 	995.3894      	10046.3195    	2686    
1781 	995.9147      	10041.0202    	2689    
1782 	996.4401      	10035.7259    	2743    
1783 	996.9655      	10030.4372    	2658    
1784 	997.4910      	10025.1534    	2731    
1785 	998.0164      	10019.8752    	2746    
1786 	998.5420      	10014.6014    	2701    
1787 	999.0675      	10009.3337    	2733    
1788 	999.5931      	10004.0703    	2671    
1789 	1000.1188     	9998.8124     	2688    
1790 	1000.6445     	9993.5594     	2683    
1791 	1001.1702     	9988.3120     	2735    
1792 	1001.6959     	9983.0695     	2753    
1793 	1002.2217     	9977.8318     	2633    
1794 	1002.7476     	9972.5991     	2720    
1795 	1003.2735     	9967.3718     	2702    
1796 	1003.7994     	9962.1494     	2732    
1797 	1004.3254     	9956.9325     	2664    
1798 	1004.8514     	9951.7204     	2644    
1799 	1005.3774     	9946.5132     	2656    
1800 	1005.9035     	9941.3114     	2711    
1801 	1006.4296     	9936.1145     	2731    
1802 	1006.9558     	9930.9224     	2795    
1803 	1007.4820     	9925.7357     	2716    
1804 	1008.0082     	9920.5538     	2748    
1805 	1008.5345     	9915.3774     	2764    
1806 	1009.0609     	9910.2051     	2700    
1807 	1009.5872     	9905.0382     	2742    
1808 	1010.1136     	9899.8767     	2667    
1809 	1010.6400     	9894.7200     	2670    
1810 	1011.1665     	9889.5681     	2739    
1811 	1011.6931     	9884.4209     	2669    
1812 	1012.2196     	9879.2791     	2743    
1813 	1012.7462     	9874.1421     	2756    
1814 	1013.2728     	9869.0103     	2767    
1815 	1013.7995     	9863.8833     	2762    
1816 	1014.3262     	9858.7611     	2779    
1817 	1014.8530     	9853.6442     	2693    
1818 	1015.3798     	9848.5319     	2727    
1819 	1015.9066     	9843.4244     	2750    
1820 	1016.4335     	9838.3222     	2720    
1821 	1016.9604     	9833.2247     	2752    
1822 	1017.4874     	9828.1319     	2706    
1823 	1018.0143     	9823.0443     	2672    
1824 	1018.5414     	9817.9614     	2708    
1825 	1019.0685     	9812.8832     	2737    
1826 	1019.5956     	9807.8103     	2759    
1827 	1020.1227     	9802.7420     	2743    
1828 	1020.6499     	9797.6789     	2695    
1829 	1021.1771     	9792.6205     	2741    
1830 	1021.7044     	9787.5667     	2777    
1831 	1022.2318     	9782.5175     	2732    
1832 	1022.7591     	9777.4736     	2751    
1833 	1023.2864     	9772.4348     	2712    
1834 	1023.8139     	9767.4001     	2692    
1835 	1024.3413     	9762.3711     	2632    
1836 	1024.8689     	9757.3456     	2713    
1837 	1025.3964     	9752.3264     	2823    
1838 	1025.9240     	9747.3112     	2793    
1839 	1026.4517     	9742.3000     	2754    
1840 	1026.9792     	9737.2951     	2726    
1841 	1027.5070     	9732.2942     	2691    
1842 	1028.0348     	9727.2973     	2670    
1843 	1028.5625     	9722.3066     	2755    
1844 	1029.0903     	9717.3199     	2682    
1845 	1029.6182     	9712.3384     	2754    
1846 	1030.1461     	9707.3608     	2754    
1847 	1030.6741     	9702.3882     	2671    
1848 	1031.2020     	9697.4208     	2753    
1849 	1031.7301     	9692.4573     	2765    
1850 	1032.2581     	9687.5001     	2661    
1851 	1032.7863     	9682.5456     	2713    
1852 	1033.3143     	9677.5973     	2773    
1853 	1033.8425     	9672.6530     	2770    
1854 	1034.3707     	9667.7136     	2683    
1855 	1034.8990     	9662.7782     	2745    
1856 	1035.4272     	9657.8490     	2701    
1857 	1035.9557     	9652.9225     	2727    
1858 	1036.4840     	9648.0022     	2710    
1859 	1037.0125     	9643.0858     	2695    
1860 	1037.5409     	9638.1743     	2742    
1861 	1038.0693     	9633.2679     	2707    
1862 	1038.5979     	9628.3653     	2772    
1863 	1039.1265     	9623.4677     	2677    
1864 	1039.6550     	9618.5751     	2736    
1865 	1040.1837     	9613.6864     	2798    
1866 	1040.7124     	9608.8026     	2712    
1867 	1041.2411     	9603.9237     	2757    
1868 	1041.7699     	9599.0487     	2750    
1869 	1042.2987     	9594.1787     	2725    
1870 	1042.8275     	9589.3135     	2707    
1871 	1043.3564     	9584.4522     	2710    
1872 	1043.8854     	9579.5958     	2679    
1873 	1044.4143     	9574.7444     	2668    
1874 	1044.9432     	9569.8978     	2717    
1875 	1045.4723     	9565.0550     	2749    
1876 	1046.0015     	9560.2161     	2677    
1877 	1046.5305     	9555.3831     	2674    
1878 	1047.0597     	9550.5539     	2693    
1879 	1047.5889     	9545.7295     	2779    
1880 	1048.1182     	9540.9090     	2728    
1881 	1048.6473     	9536.0944     	2723    
1882 	1049.1766     	9531.2835     	2740    
1883 	1049.7061     	9526.4764     	2757    
1884 	1050.2355     	9521.6742     	2703    
1885 	1050.7649     	9516.8768     	2745    
1886 	1051.2943     	9512.0842     	2714    
1887 	1051.8239     	9507.2953     	2660    
1888 	1052.3534     	9502.5113     	2729    
1889 	1052.8829     	9497.7321     	2719    
1890 	1053.4126     	9492.9565     	2686    
1891 	1053.9423     	9488.1858     	2708    
1892 	1054.4719     	9483.4199     	2656    
1893 	1055.0017     	9478.6576     	2652    
1894 	1055.5315     	9473.9002     	2751    
1895 	1056.0613     	9469.1475     	2668    
1896 	1056.5912     	9464.3985     	2748    
1897 	1057.1211     	9459.6542     	2721    
1898 	1057.6510     	9454.9147     	2708    
1899 	1058.1809     	9450.1799     	2699    
1900 	1058.7109     	9445.4488     	2686    
1901 	1059.2410     	9440.7225     	2723    
1902 	1059.7711     	9435.9997     	2634    
1903 	1060.3013     	9431.2817     	2682    
1904 	1060.8314     	9426.5684     	2604    
1905 	1061.3616     	9421.8599     	2693    
1906 	1061.8918     	9417.1549     	2688    
1907 	1062.4221     	9412.4546     	2707    
1908 	1062.9525     	9407.7580     	2696    
1909 	1063.4828     	9403.0671     	2751    
1910 	1064.0132     	9398.3798     	2726    
1911 	1064.5437     	9393.6961     	2751    
1912 	1065.0741     	9389.0181     	2768    
1913 	1065.6046     	9384.3437     	2725    
1914 	1066.1353     	9379.6729     	2726    
1915 	1066.6658     	9375.0079     	2737    
1916 	1067.1964     	9370.3464     	2700    
1917 	1067.7271     	9365.6895     	2714    
1918 	1068.2578     	9361.0361     	2719    
1919 	1068.7886     	9356.3874     	2682    
1920 	1069.3193     	9351.7434     	2755    
1921 	1069.8502     	9347.1028     	2740    
1922 	1070.3810     	9342.4679     	2793    
1923 	1070.9120     	9337.8355     	2788    
1924 	1071.4429     	9333.2088     	2733    
1925 	1071.9739     	9328.5855     	2702    
1926 	1072.5049     	9323.9669     	2762    
1927 	1073.0359     	9319.3528     	2655    
1928 	1073.5670     	9314.7422     	2709    
1929 	1074.0981     	9310.1362     	2732    
1930 	1074.6294     	9305.5337     	2760    
1931 	1075.1605     	9300.9367     	2791    
1932 	1075.6918     	9296.3433     	2743    
1933 	1076.2231     	9291.7533     	2685    
1934 	1076.7544     	9287.1690     	2733    
1935 	1077.2858     	9282.5881     	2729    
1936 	1077.8171     	9278.0117     	2658    
1937 	1078.3486     	9273.4388     	2677    
1938 	1078.8801     	9268.8703     	2629    
1939 	1079.4116     	9264.3064     	2722    
1940 	1079.9432     	9259.7459     	2751    
1941 	1080.4749     	9255.1899     	2695    
1942 	1081.0065     	9250.6384     	2728    
1943 	1081.5381     	9246.0914     	2731    
1944 	1082.0698     	9241.5478     	2741    
1945 	1082.6016     	9237.0087     	2737    
1946 	1083.1333     	9232.4740     	2727    
1947 	1083.6652     	9227.9427     	2735    
1948 	1084.1970     	9223.4159     	2726    
1949 	1084.7290     	9218.8924     	2722    
1950 	1085.2609     	9214.3745     	2744    
1951 	1085.7928     	9209.8599     	2810    
1952 	1086.3250     	9205.3487     	2674    
1953 	1086.8569     	9200.8430     	2855    
1954 	1087.3890     	9196.3406     	2805    
1955 	1087.9211     	9191.8427     	2687    
1956 	1088.4534     	9187.3481     	2786    
1957 	1088.9856     	9182.8579     	2708    
1958 	1089.5178     	9178.3721     	2698    
1959 	1090.0500     	9173.8907     	2695    
1960 	1090.5824     	9169.4126     	2702    
1961 	1091.1147     	9164.9389     	2705    
1962 	1091.6472     	9160.4686     	2743    
1963 	1092.1797     	9156.0025     	2752    
1964 	1092.7122     	9151.5409     	2736    
1965 	1093.2446     	9147.0836     	2697    
1966 	1093.7772     	9142.6296     	2719    
1967 	1094.3098     	9138.1799     	2726    
1968 	1094.8424     	9133.7346     	2785    
1969 	1095.3751     	9129.2926     	2717    
1970 	1095.9078     	9124.8549     	2738    
1971 	1096.4406     	9120.4215     	2661    
1972 	1096.9734     	9115.9914     	2719    
1973 	1097.5061     	9111.5666     	2734    
1974 	1098.0391     	9107.1441     	2724    
1975 	1098.5719     	9102.7269     	2744    
1976 	1099.1049     	9098.3130     	2745    
1977 	1099.6378     	9093.9033     	2721    
1978 	1100.1709     	9089.4969     	2717    
1979 	1100.7039     	9085.0958     	2772    
1980 	1101.2369     	9080.6979     	2802    
1981 	1101.7701     	9076.3033     	2728    
1982 	1102.3032     	9071.9140     	2819    
1983 	1102.8364     	9067.5278     	2681    
1984 	1103.3698     	9063.1450     	2715    
1985 	1103.9030     	9058.7673     	2708    
1986 	1104.4363     	9054.3929     	2701    
1987 	1104.9697     	9050.0217     	2721    
1988 	1105.5031     	9045.6557     	2739    
1989 	1106.0365     	9041.2929     	2740    
1990 	1106.5699     	9036.9344     	2719    
1991 	1107.1035     	9032.5790     	2627    
1992 	1107.6371     	9028.2279     	2731    
1993 	1108.1707     	9023.8809     	2749    
1994 	1108.7042     	9019.5381     	2710    
1995 	1109.2379     	9015.1985     	2725    
1996 	1109.7716     	9010.8631     	2704    
1997 	1110.3053     	9006.5318     	2709    
1998 	1110.8391     	9002.2037     	2759    
1999 	1111.3729     	8997.8798     	2710    
2000 	1111.9067     	8993.5600     	2727    
2001 	1112.4407     	8989.2434     	2713    
2002 	1112.9746     	8984.9309     	2660    
2003 	1113.5085     	8980.6226     	2683    
2004 	1114.0426     	8976.3174     	2699    
2005 	1114.5767     	8972.0163     	2684    
2006 	1115.1107     	8967.7194     	2730    
2007 	1115.6448     	8963.4265     	2652    
2008 	1116.1790     	8959.1368     	2749    
2009 	1116.7131     	8954.8512     	2675    
2010 	1117.2473     	8950.5697     	2709    
2011 	1117.7816     	8946.2913     	2709    
2012 	1118.3159     	8942.0170     	2688    
2013 	1118.8503     	8937.7459     	2785    
2014 	1119.3846     	8933.4797     	2704    
2015 	1119.9191     	8929.2167     	2731    
2016 	1120.4535     	8924.9577     	2690    
2017 	1120.9880     	8920.7018     	2620    
2018 	1121.5226     	8916.4500     	2787    
2019 	1122.0571     	8912.2022     	2680    
2020 	1122.5918     	8907.9575     	2732    
2021 	1123.1263     	8903.7178     	2717    
2022 	1123.6610     	8899.4812     	2636    
2023 	1124.1958     	8895.2476     	2713    
2024 	1124.7306     	8891.0181     	2689    
2025 	1125.2654     	8886.7925     	2718    
2026 	1125.8002     	8882.5710     	2661    
2027 	1126.3351     	8878.3526     	2659    
2028 	1126.8700     	8874.1381     	2686    
2029 	1127.4049     	8869.9277     	2712    
2030 	1127.9399     	8865.7203     	2645    
2031 	1128.4749     	8861.5178     	2676    
2032 	1129.0100     	8857.3174     	2677    
2033 	1129.5450     	8853.1219     	2766    
2034 	1130.0802     	8848.9295     	2706    
2035 	1130.6154     	8844.7410     	2676    
2036 	1131.1506     	8840.5555     	2705    
2037 	1131.6858     	8836.3750     	2747    
2038 	1132.2211     	8832.1974     	2752    
2039 	1132.7565     	8828.0229     	2766    
2040 	1133.2917     	8823.8532     	2808    
2041 	1133.8271     	8819.6865     	2733    
2042 	1134.3627     	8815.5228     	2735    
2043 	1134.8981     	8811.3640     	2781    
2044 	1135.4336     	8807.2081     	2736    
2045 	1135.9691     	8803.0562     	2619    
2046 	1136.5048     	8798.9073     	2698    
2047 	1137.0404     	8794.7622     	2718    
2048 	1137.5760     	8790.6211     	2805    
