MIN=0	-300	-0.3
MAX=28.2842712474619	300	0.3
SCALE=10	100	0.1
DEC=1	1	4
DEF="Time" t / s	"Magn. flux density" B_A1 / mT	"Voltage" U_B1 / V
0	-6.39	-0.0012
0.1	-6.465	-0.0027
0.19	-6.39	0
0.3	-6.375	-0.00285
0.4	-6.405	-0.00045
0.49	-6.375	-0.0009
0.6	-6.33	-0.0024
0.69	-6.42	-0.00075
0.8	-6.36	0.0003
0.9	-6.42	0.0006
0.99	-6.405	0.00045
1.1	-6.39	-0.0012
1.19	-6.405	0.00135
1.3	-6.39	-0.00075
1.4	-6.405	0.00015
1.51	-6.345	-0.00165
1.6	-6.36	-0.0015
1.69	-6.39	0.00105
1.8	-6.36	-0.0036
1.9	-6.405	0.00015
2.01	-6.39	0.00045
2.1	-6.45	-0.0018
2.19	-6.42	-0.0006
2.3	-6.315	-0.0003
2.4	-4.89	0.0006
2.51	-3.855	0.00045
2.6		-0.0006
2.69	-1.16	-0.0003
2.9	-1.12	-0.00075
2.99	-1.07	0.00045
3.1	-0.285	-0.0009
3.19	1.025	0.00045
3.3	3.155	-0.00225
3.4	5.39	0.0012
3.49	6.13	0.0003
3.6	6.26	-0.0015
3.69	6.755	-0.00015
3.8	7.39	-0.00255
3.91	9.795	0.0012
4		-0.00015
4.1	10.545	-0.00135
4.19	10.74	-0.00075
4.3	11.655	-0.0006
4.39	12.15	0.0012
4.5	12.27	-0.0018
4.6	12.42	-0.0009
4.69	12.375	0.0003
4.8	12.405	-0.00165
4.89	12.795	0.00255
5	13.635	-0.0033
5.1	13.56	-0.00105
5.19	13.605	-0.00105
5.3	13.575	-0.0033
5.39	13.635	-0.00135
5.5	14.22	-0.00195
5.6	16.395	0.00105
5.71	19.485	-0.00075
5.8	20.205	-0.0009
5.9	21.465	-0.0009
5.99	22.83	0.00135
6.1	23.01	-0.0018
6.2	24.105	0.00195
6.3	25.395	-0.0006
6.4	25.95	-0.00045
6.49	27.315	0.0006
6.6	28.17	-0.00375
6.69	28.83	-0.00285
6.8	29.265	0.00045
6.89		0.0009
7	30.85	-0.003
7.1	30.65	0.0006
7.2	30.65	-0.0021
7.3	30.7	-0.0006
7.39	30.75	0.00105
7.5	30.65	-0.0021
7.6	32.9	0.0012
7.7	33	-0.0015
7.8	33.05	0.00045
7.89	33.1	-0.00015
8	34.6	-0.00075
8.1	34.95	0.00165
8.2	35.9	0.00045
8.3	36.5	-0.0018
8.39	36.65	0.0021
8.5	36.75	-0.00105
8.6	37.3	-0.0006
8.7	38.3	-0.00195
8.8	39.6	-0.00165
8.89	41.15	0.00135
9.01	42.45	-0.0006
9.11	42.85	-0.0006
9.2	43.3	-0.0009
9.29	43.9	0.0009
9.4	46	-0.0024
9.5	46.85	0.0003
9.6	47.9	-0.0018
9.69	48.05	0.00015
9.8	47.9	-0.0012
9.89	47.85	0.0009
10	48	-0.00195
10.1	47.95	-0.0024
10.19	50.7	-0.0006
10.3	51.65	-0.0033
10.39	53.75	0.00045
10.5	54.25	-0.0033
10.6	54.15	-0.0015
10.69	54.25	-0.0006
10.8	55.5	-0.00075
10.9	56.3	-0.0009
10.99	56.4	0.00105
11.1	56.45	-0.0012
11.19	59.7	0.00045
11.3	59.85	-0.00165
11.4	59.85	0.00015
11.51	59.8	-0.00015
11.6	59.75	-0.00375
11.7	59.8	0.0012
11.8	59.8	-0.00105
11.9	59.85	-0.0012
11.99	59.9	-0.0015
12.1	59.8	-0.00285
12.19	59.95	0.0003
12.3	59.9	0
12.4	60.45	-0.0003
12.49	63.8	0.0015
12.6	65.35	-0.0012
12.7	66.2	-0.00105
12.8	66.15	-0.00165
12.9	66.1	-0.00135
12.99	66.2	-0.00045
13.1	66.15	-0.0009
13.19	70.45	-0.0006
13.3	72.4	-0.00225
13.4	72.5	-0.00045
13.49	72.6	0
13.6	72.7	-0.0018
13.69	74.75	-0.0012
13.8	76.6	-0.00075
13.9	77.05	-0.0009
13.99	77.15	-0.00225
14.1	77.05	-0.00195
14.19	77.15	0
14.3	79.4	-0.0021
14.4	80.3	-0.00075
14.49	82.6	-0.00105
14.6	82.95	0
14.7	83	0.00075
14.8	83.1	-0.00225
14.89	83.05	0.00075
15	83.1	-0.00015
15.1	85.85	-0.00015
15.21	85.85	0.00075
15.3	85.9	-0.0024
15.39	87.5	0.00105
15.5	88.8	-0.00255
15.6	88.75	-0.00045
15.7	88.8	0.0015
15.8	91.15	-0.00195
15.89	91.25	0.00135
16	92.4	-0.0012
16.1	92.9	0.00015
16.2	92.8	-0.00165
16.3	92.85	0.00015
16.39	92.85	0.0009
16.5	95.4	-0.0015
16.6	97.7	0
16.7	97.8	0.0009
16.8	97.8	-0.0021
16.89	97.8	0.0018
17	97.85	-0.0012
17.1	97.8	-0.00075
17.2		0
17.3	108.9	-0.00135
17.39	109.35	0
17.5	109.35	-0.0015
17.59	109.35	-0.00225
17.7	112.5	-0.0009
17.8	112.5	0
17.9	112.65	-0.00165
18	112.65	-0.00165
18.1	112.5	-0.0024
18.19	112.5	0.00045
18.3	112.65	-0.00105
18.39	112.5	-0.0006
18.5	112.65	-0.0012
18.6	112.65	-0.0024
18.69	112.8	-0.0006
18.8	112.65	-0.00255
18.89	112.5	-0.0009
19	115.2	-0.0012
19.1	117.75	-0.0033
19.19	118.8	0.00015
19.3	118.95	-0.0006
19.39	118.8	0.00015
19.5	118.95	0.0006
19.59	118.8	0.00045
19.7	118.95	-0.0009
19.8	123.6	0.00075
19.9	129.15	0.00045
20	129.15	-0.00105
20.09	129.15	0.00015
20.2	132	-0.00075
20.3	134.25	-0.00015
20.4	134.25	-0.00015
20.5	134.25	-0.00105
20.59	136.8	0.00075
20.7	136.95	-0.00135
20.8	136.95	-0.0003
20.9	136.8	0.0009
21	137.55	-0.00045
21.09	140.7	0.0009
21.2	144.6	-0.0015
21.3	146.55	-0.0003
21.4	146.55	-0.0009
21.5	146.4	-0.00135
21.59	153.15	-0.00105
21.7	157.05	-0.0003
21.8	159.3	-0.00135
21.9	162	-0.0036
22	163.5	-0.00165
22.09	163.35	-0.00165
22.2	163.5	-0.00165
22.3	169.35	-0.0012
22.39	174.3	-0.00015
22.5	175.2	-0.0027
22.59	175.05	0.0006
22.7	175.05	0.0003
22.8	175.05	-0.00015
22.89	175.35	-0.0012
23	175.2	-0.00075
23.1	175.2	-0.0015
23.2	175.35	-0.0021
23.29	175.2	0.00075
23.4	175.35	-0.0012
23.5	175.2	-0.00195
23.6	175.35	-0.00075
23.7	175.35	-0.00255
23.79	175.35	0.00105
23.89	175.2	0.00045
24	175.2	-0.00195
24.09	175.2	-0.0012
24.2	175.2	-0.00015
24.3	175.35	-0.0015
24.4	175.2	-0.0015
24.5	175.2	-0.00195
24.59	175.2	-0.0012
24.7	175.2	-0.00015
24.8	175.2	-0.0024
24.9	175.2	0.0015
25	175.35	-0.0033
25.1	175.35	0.00045
25.2	175.2	-0.00015
25.31	175.2	0.00135
